image,trials.thisRepN,trials.thisTrialN,trials.thisN,trials.thisIndex,thisRow.t,notes,WaitingForScannerTrigger.started,Vertical.started,key_resp.started,WaitingForScannerTrigger.stopped,key_resp.keys,key_resp.corr,key_resp.rt,key_resp.duration,VDT.started,PresentedLine1.started,key_resp_2.started,FixDot2.started,PresentedLine1.stopped,VDT.stopped,key_resp_2.keys,key_resp_2.corr,key_resp_2.rt,key_resp_2.duration,FixDot2.stopped,key_resp_2.stopped,participant,session,run,BG_color,date,expName,psychopyVersion,frameRate,expStart,
,,,,,,,0.005787483009044081,0.01243209300446324,0.01243209300446324,0.36445166400517337,s,0,0.3480312660103664,None,,,,,,,,,,,,,sub-SM2,ses-2main,run-2,grey,2024-05-31_12h20.24.321,VDT,2023.2.3,116.9605663263396,2024-05-31 12h20.28.299058 +0200,
./images_eeg/Sphere_CCW-3_BG-grey_stim-white.png,0,0,0,0,0.42018565101898275,,,,,,,,,,0.3751385490177199,0.42018565101898275,0.42018565101898275,1.1123911210161168,1.164254820003407,1.3482061040122062,None,0,,,,,sub-SM2,ses-2main,run-2,grey,2024-05-31_12h20.24.321,VDT,2023.2.3,116.9605663263396,2024-05-31 12h20.28.299058 +0200,
./images_eeg/Sphere_CW-3_BG-grey_stim-white.png,0,1,1,1,1.3903332909976598,,,,,,,,,,1.348915220994968,1.3903332909976598,1.3903332909976598,2.1135413930169307,2.1392375309951603,2.3303110510169063,None,0,,,,,sub-SM2,ses-2main,run-2,grey,2024-05-31_12h20.24.321,VDT,2023.2.3,116.9605663263396,2024-05-31 12h20.28.299058 +0200,
./images_eeg/Sphere_CW-3_BG-grey_stim-white.png,0,2,2,2,2.3849430390109774,,,,,,,,,,2.3310832749994006,2.3849430390109774,2.3849430390109774,3.1131669110036455,3.1311668810085393,3.329708753997693,None,0,,,,,sub-SM2,ses-2main,run-2,grey,2024-05-31_12h20.24.321,VDT,2023.2.3,116.9605663263396,2024-05-31 12h20.28.299058 +0200,
./images_eeg/Sphere_CW-3_BG-grey_stim-white.png,0,3,3,3,3.380851148016518,,,,,,,,,,3.330446855019545,3.380851148016518,3.380851148016518,4.112325384019641,4.128023066994501,4.320679558994016,None,0,,,,,sub-SM2,ses-2main,run-2,grey,2024-05-31_12h20.24.321,VDT,2023.2.3,116.9605663263396,2024-05-31 12h20.28.299058 +0200,
./images_eeg/Sphere_Ref_BG-grey_stim-white.png,0,4,4,4,4.365953005995834,,,,,,,,,,4.321703938010614,4.365953005995834,4.365953005995834,5.110825275012758,5.110825275012758,5.279014961008215,['space'],0,0.6723491879820358,None,,,sub-SM2,ses-2main,run-2,grey,2024-05-31_12h20.24.321,VDT,2023.2.3,116.9605663263396,2024-05-31 12h20.28.299058 +0200,
./images_eeg/Sphere_CW-3_BG-grey_stim-white.png,0,5,5,5,5.331056652998086,,,,,,,,,,5.280563973006792,5.359796848002588,5.359796848002588,6.109034696011804,6.109034696011804,6.336894641019171,None,0,,,,,sub-SM2,ses-2main,run-2,grey,2024-05-31_12h20.24.321,VDT,2023.2.3,116.9605663263396,2024-05-31 12h20.28.299058 +0200,
./images_eeg/Sphere_CCW-3_BG-grey_stim-white.png,0,6,6,6,6.383639462990686,,,,,,,,,,6.337681801000144,6.383639462990686,6.383639462990686,7.111216777993832,7.127004889014643,7.327810615010094,None,0,,,,,sub-SM2,ses-2main,run-2,grey,2024-05-31_12h20.24.321,VDT,2023.2.3,116.9605663263396,2024-05-31 12h20.28.299058 +0200,
./images_eeg/Sphere_Ref_BG-grey_stim-white.png,0,7,7,7,7.374839002994122,,,,,,,,,,7.328396529017482,7.374839002994122,7.374839002994122,8.111333922017366,8.118922071007546,8.278391494008247,['space'],0,0.5362109609995969,None,,,sub-SM2,ses-2main,run-2,grey,2024-05-31_12h20.24.321,VDT,2023.2.3,116.9605663263396,2024-05-31 12h20.28.299058 +0200,
./images_eeg/Sphere_CW-3_BG-grey_stim-white.png,0,8,8,8,8.325265890016453,,,,,,,,,,8.279156820004573,8.358757762995083,8.358757762995083,9.11062785499962,9.10232084299787,9.269228649995057,None,0,,,,,sub-SM2,ses-2main,run-2,grey,2024-05-31_12h20.24.321,VDT,2023.2.3,116.9605663263396,2024-05-31 12h20.28.299058 +0200,
./images_eeg/Sphere_CCW-3_BG-grey_stim-white.png,0,9,9,9,9.31325369499973,,,,,,,,,,9.269884900015313,9.358754696993856,9.358754696993856,10.109681596019072,10.101798176008742,10.336191013018833,None,0,,,,,sub-SM2,ses-2main,run-2,grey,2024-05-31_12h20.24.321,VDT,2023.2.3,116.9605663263396,2024-05-31 12h20.28.299058 +0200,
./images_eeg/Sphere_Ref_BG-grey_stim-white.png,0,10,10,10,10.38387947101728,,,,,,,,,,10.337156919995323,10.38387947101728,10.38387947101728,11.108584255009191,11.1251879830088,11.309811001003254,['space'],0,0.5754518329922576,None,,,sub-SM2,ses-2main,run-2,grey,2024-05-31_12h20.24.321,VDT,2023.2.3,116.9605663263396,2024-05-31 12h20.28.299058 +0200,
./images_eeg/Sphere_CW-3_BG-grey_stim-white.png,0,11,11,11,11.356497052998748,,,,,,,,,,11.310481260996312,11.367942144017434,11.367942144017434,12.108820788998855,12.108820788998855,12.318871922994731,None,0,,,,,sub-SM2,ses-2main,run-2,grey,2024-05-31_12h20.24.321,VDT,2023.2.3,116.9605663263396,2024-05-31 12h20.28.299058 +0200,
./images_eeg/Sphere_CW-3_BG-grey_stim-white.png,0,12,12,12,12.368743761995574,,,,,,,,,,12.320061862992588,12.368743761995574,12.368743761995574,13.109506362990942,13.116997975012055,13.268204794992926,None,0,,,,,sub-SM2,ses-2main,run-2,grey,2024-05-31_12h20.24.321,VDT,2023.2.3,116.9605663263396,2024-05-31 12h20.28.299058 +0200,
./images_eeg/Sphere_CCW-3_BG-grey_stim-white.png,0,13,13,13,13.313906216993928,,,,,,,,,,13.269118088996038,13.360205941018648,13.360205941018648,14.108082176011521,14.108082176011521,14.291918096016161,None,0,,,,,sub-SM2,ses-2main,run-2,grey,2024-05-31_12h20.24.321,VDT,2023.2.3,116.9605663263396,2024-05-31 12h20.28.299058 +0200,
./images_eeg/Sphere_Ref_BG-grey_stim-white.png,0,14,14,14,14.327532416005852,,,,,,,,,,14.292392466013553,14.357113495992962,14.357113495992962,15.108227256016107,15.100736849999521,15.30127744699712,['space'],0,0.6450906980026048,None,,,sub-SM2,ses-2main,run-2,grey,2024-05-31_12h20.24.321,VDT,2023.2.3,116.9605663263396,2024-05-31 12h20.28.299058 +0200,
./images_eeg/Sphere_CCW-3_BG-grey_stim-white.png,0,15,15,15,15.343944451014977,,,,,,,,,,15.302112342003966,15.357738838007208,15.357738838007208,16.106916763004847,16.106916763004847,16.368059863016242,None,0,,,16.349999978003325,16.349999978003325,sub-SM2,ses-2main,run-2,grey,2024-05-31_12h20.24.321,VDT,2023.2.3,116.9605663263396,2024-05-31 12h20.28.299058 +0200,
./images_eeg/Sphere_CCW-3_BG-grey_stim-white.png,0,16,16,16,16.41236603699508,,,,,,,,,,16.368703593994724,16.41236603699508,16.41236603699508,17.10826611999073,17.15763040399179,17.284442553005647,None,0,,,,,sub-SM2,ses-2main,run-2,grey,2024-05-31_12h20.24.321,VDT,2023.2.3,116.9605663263396,2024-05-31 12h20.28.299058 +0200,
./images_eeg/Sphere_CCW-3_BG-grey_stim-white.png,0,17,17,17,17.326366801018594,,,,,,,,,,17.284953871014295,17.35832551200292,17.35832551200292,18.106663523998577,18.106663523998577,18.291316335002193,None,0,,,,,sub-SM2,ses-2main,run-2,grey,2024-05-31_12h20.24.321,VDT,2023.2.3,116.9605663263396,2024-05-31 12h20.28.299058 +0200,
