image,trials.thisRepN,trials.thisTrialN,trials.thisN,trials.thisIndex,thisRow.t,notes,WaitingForScannerTrigger.started,Vertical.started,key_resp.started,WaitingForScannerTrigger.stopped,key_resp.keys,key_resp.corr,key_resp.rt,key_resp.duration,VDT.started,PresentedLine1.started,key_resp_2.started,FixDot2.started,PresentedLine1.stopped,VDT.stopped,key_resp_2.keys,key_resp_2.corr,FixDot2.stopped,key_resp_2.stopped,participant,session,run,BG_color,date,expName,psychopyVersion,frameRate,expStart,
,,,,,,,0.009633174995542504,0.028981354997085873,0.028981354997085873,6.591762446994835,s,0,6.501304730001721,None,,,,,,,,,,,sub-SM222,ses-1control,run-1,grey,2024-10-10_12h17.39.508,VDT,2023.2.3,60.187501761748095,2024-10-10 12h17.55.480565 +0200,
./images_eeg/Sphere_CW-3_BG-grey_stim-white.png,0,0,0,0,6.657041619000665,,,,,,,,,,6.601927928997611,6.657041619000665,6.657041619000665,7.345502920994477,7.420626925995748,7.49534854599915,None,0,,,sub-SM222,ses-1control,run-1,grey,2024-10-10_12h17.39.508,VDT,2023.2.3,60.187501761748095,2024-10-10 12h17.55.480565 +0200,
./images_eeg/Sphere_CCW-3_BG-grey_stim-white.png,0,1,1,1,7.549203254995518,,,,,,,,,,7.4967651379993185,7.59241963999375,7.59241963999375,8.343200687995704,8.343200687995704,8.544960336999793,None,0,,,sub-SM222,ses-1control,run-1,grey,2024-10-10_12h17.39.508,VDT,2023.2.3,60.187501761748095,2024-10-10 12h17.55.480565 +0200,
./images_eeg/Sphere_Ref_BG-grey_stim-yellow.png,0,2,2,2,8.602873097996053,,,,,,,,,,8.54608453399851,8.602873097996053,8.602873097996053,9.345844865994877,9.362212014995748,9.609740485997463,None,0,9.597305540999514,9.608826648000104,sub-SM222,ses-1control,run-1,grey,2024-10-10_12h17.39.508,VDT,2023.2.3,60.187501761748095,2024-10-10 12h17.55.480565 +0200,
./images_eeg/Sphere_CCW-3_BG-grey_stim-white.png,0,3,3,3,9.660659223998664,,,,,,,,,,9.610669516994676,9.660659223998664,9.660659223998664,10.343858581996756,10.417809459999262,10.586835290996532,None,0,,,sub-SM222,ses-1control,run-1,grey,2024-10-10_12h17.39.508,VDT,2023.2.3,60.187501761748095,2024-10-10 12h17.55.480565 +0200,
./images_eeg/Sphere_CW-3_BG-grey_stim-white.png,0,4,4,4,10.64096487799543,,,,,,,,,,10.588106147995859,10.64096487799543,10.64096487799543,11.343208687998413,11.40644905299996,11.598842785999295,None,0,11.597661175997928,,sub-SM222,ses-1control,run-1,grey,2024-10-10_12h17.39.508,VDT,2023.2.3,60.187501761748095,2024-10-10 12h17.55.480565 +0200,
./images_eeg/Sphere_Ref_BG-grey_stim-yellow.png,0,5,5,5,11.656899502995657,,,,,,,,,,11.599545851000585,11.656899502995657,11.656899502995657,12.357614607994037,12.41417103799904,12.509564018000674,None,0,,,sub-SM222,ses-1control,run-1,grey,2024-10-10_12h17.39.508,VDT,2023.2.3,60.187501761748095,2024-10-10 12h17.55.480565 +0200,
./images_eeg/Sphere_CCW-3_BG-grey_stim-white.png,0,6,6,6,12.559239308000542,,,,,,,,,,12.51035144499474,12.603437194993603,12.603437194993603,13.347902837995207,13.364839847999974,13.529109274997609,None,0,,,sub-SM222,ses-1control,run-1,grey,2024-10-10_12h17.39.508,VDT,2023.2.3,60.187501761748095,2024-10-10 12h17.55.480565 +0200,
./images_eeg/Sphere_CW-3_BG-grey_stim-white.png,0,7,7,7,13.593948858993826,,,,,,,,,,13.530182185997546,13.593948858993826,13.593948858993826,14.342704529997718,14.342704529997718,14.606364057995961,None,0,14.605357299995376,14.605357299995376,sub-SM222,ses-1control,run-1,grey,2024-10-10_12h17.39.508,VDT,2023.2.3,60.187501761748095,2024-10-10 12h17.55.480565 +0200,
./images_eeg/Sphere_CCW-3_BG-grey_stim-yellow.png,0,8,8,8,14.654166695996537,,,,,,,,,,14.606929692999984,14.654166695996537,14.654166695996537,15.347765697995783,15.419060706997698,15.609181878993695,None,0,15.607496397999057,,sub-SM222,ses-1control,run-1,grey,2024-10-10_12h17.39.508,VDT,2023.2.3,60.187501761748095,2024-10-10 12h17.55.480565 +0200,
./images_eeg/Sphere_CW-3_BG-grey_stim-white.png,0,9,9,9,15.663339237995388,,,,,,,,,,15.610370941998553,15.663339237995388,15.663339237995388,16.347427894994325,16.422788055999263,16.52832690499781,None,0,,,sub-SM222,ses-1control,run-1,grey,2024-10-10_12h17.39.508,VDT,2023.2.3,60.187501761748095,2024-10-10 12h17.55.480565 +0200,
./images_eeg/Sphere_CW-3_BG-grey_stim-white.png,0,10,10,10,16.58115018600074,,,,,,,,,,16.529512838998926,16.59803825400013,16.59803825400013,17.351693553995574,17.351693553995574,17.52811286299402,None,0,,,sub-SM222,ses-1control,run-1,grey,2024-10-10_12h17.39.508,VDT,2023.2.3,60.187501761748095,2024-10-10 12h17.55.480565 +0200,
./images_eeg/Sphere_CCW-3_BG-grey_stim-white.png,0,11,11,11,17.58080035799503,,,,,,,,,,17.529390237999905,17.59663506799552,17.59663506799552,18.345534845997463,18.3615801969936,18.527883263996046,None,0,,,sub-SM222,ses-1control,run-1,grey,2024-10-10_12h17.39.508,VDT,2023.2.3,60.187501761748095,2024-10-10 12h17.55.480565 +0200,
./images_eeg/Sphere_CW-3_BG-grey_stim-yellow.png,0,12,12,12,18.582627244999458,,,,,,,,,,18.52894182199816,18.597926017995633,18.597926017995633,19.345224214994232,19.361404491995927,19.561850821999542,None,0,,,sub-SM222,ses-1control,run-1,grey,2024-10-10_12h17.39.508,VDT,2023.2.3,60.187501761748095,2024-10-10 12h17.55.480565 +0200,
./images_eeg/Sphere_CCW-3_BG-grey_stim-white.png,0,13,13,13,19.616421925995382,,,,,,,,,,19.56270797400066,19.616421925995382,19.616421925995382,20.347204123994743,20.38226843499433,20.549659850999888,None,0,,,sub-SM222,ses-1control,run-1,grey,2024-10-10_12h17.39.508,VDT,2023.2.3,60.187501761748095,2024-10-10 12h17.55.480565 +0200,
./images_eeg/Sphere_Ref_BG-grey_stim-white.png,0,14,14,14,20.607234682000126,,,,,,,,,,20.55044274700049,20.607234682000126,20.607234682000126,21.345788799997536,21.362321230997622,21.54373578499508,None,0,,,sub-SM222,ses-1control,run-1,grey,2024-10-10_12h17.39.508,VDT,2023.2.3,60.187501761748095,2024-10-10 12h17.55.480565 +0200,
./images_eeg/Sphere_Ref_BG-grey_stim-white.png,0,15,15,15,21.594334872999752,,,,,,,,,,21.544545798999025,21.594334872999752,21.594334872999752,22.345877071995346,22.345877071995346,22.528806431000703,None,0,,,sub-SM222,ses-1control,run-1,grey,2024-10-10_12h17.39.508,VDT,2023.2.3,60.187501761748095,2024-10-10 12h17.55.480565 +0200,
./images_eeg/Sphere_CW-3_BG-grey_stim-white.png,0,16,16,16,22.582545515993843,,,,,,,,,,22.529791392000334,22.597883105998335,22.597883105998335,23.3515775449996,23.3515775449996,23.55979043899424,None,0,,,sub-SM222,ses-1control,run-1,grey,2024-10-10_12h17.39.508,VDT,2023.2.3,60.187501761748095,2024-10-10 12h17.55.480565 +0200,
./images_eeg/Sphere_CCW-3_BG-grey_stim-white.png,0,17,17,17,23.61463499999809,,,,,,,,,,23.560869843997352,23.61463499999809,23.61463499999809,24.347147591994144,24.364141941994603,24.531430351999006,None,0,,,sub-SM222,ses-1control,run-1,grey,2024-10-10_12h17.39.508,VDT,2023.2.3,60.187501761748095,2024-10-10 12h17.55.480565 +0200,
