image,trials.thisRepN,trials.thisTrialN,trials.thisN,trials.thisIndex,thisRow.t,notes,WaitingForScannerTrigger.started,Vertical.started,key_resp.started,WaitingForScannerTrigger.stopped,key_resp.keys,key_resp.corr,key_resp.rt,key_resp.duration,VDT.started,PresentedLine1.started,key_resp_2.started,FixDot2.started,PresentedLine1.stopped,VDT.stopped,key_resp_2.keys,key_resp_2.corr,key_resp_2.rt,key_resp_2.duration,participant,session,run,BG_color,date,expName,psychopyVersion,frameRate,expStart,
,,,,,,,0.013506223011063412,0.020733692013891414,0.020733692013891414,4.462769786012359,s,0,4.414226714026881,None,,,,,,,,,,,sub-SM2,ses-1control,run-1,grey,2024-05-31_12h17.59.830,VDT,2023.2.3,119.56702245268534,2024-05-31 12h18.09.920310 +0200,
./images_eeg/Sphere_Ref_BG-grey_stim-white.png,0,0,0,0,4.518793797993567,,,,,,,,,,4.4693170300161,4.518793797993567,4.518793797993567,5.213596884015715,5.2805603530141525,5.435780939005781,None,0,,,sub-SM2,ses-1control,run-1,grey,2024-05-31_12h17.59.830,VDT,2023.2.3,119.56702245268534,2024-05-31 12h18.09.920310 +0200,
./images_eeg/Sphere_Ref_BG-grey_stim-white.png,0,1,1,1,5.472911977005424,,,,,,,,,,5.436272001999896,5.472911977005424,5.472911977005424,6.204177870997228,6.228348004020518,6.429486508015543,None,0,,,sub-SM2,ses-1control,run-1,grey,2024-05-31_12h17.59.830,VDT,2023.2.3,119.56702245268534,2024-05-31 12h18.09.920310 +0200,
./images_eeg/Sphere_CCW-3_BG-grey_stim-yellow.png,0,2,2,2,6.4819880810100585,,,,,,,,,,6.430540417000884,6.4819880810100585,6.4819880810100585,7.211925594019704,7.231458127003862,7.385763352009235,['space'],0,0.5055272119934671,None,sub-SM2,ses-1control,run-1,grey,2024-05-31_12h17.59.830,VDT,2023.2.3,119.56702245268534,2024-05-31 12h18.09.920310 +0200,
./images_eeg/Sphere_CCW-3_BG-grey_stim-white.png,0,3,3,3,7.432253781007603,,,,,,,,,,7.386479815002531,7.461118939012522,7.461118939012522,8.211494250019314,8.201343535998603,8.37049987600767,None,0,,,sub-SM2,ses-1control,run-1,grey,2024-05-31_12h17.59.830,VDT,2023.2.3,119.56702245268534,2024-05-31 12h18.09.920310 +0200,
./images_eeg/Sphere_CW-3_BG-grey_stim-white.png,0,4,4,4,8.41808143799426,,,,,,,,,,8.371035941003356,8.46536362200277,8.46536362200277,9.213306915014982,9.213306915014982,9.368388995993882,None,0,,,sub-SM2,ses-1control,run-1,grey,2024-05-31_12h17.59.830,VDT,2023.2.3,119.56702245268534,2024-05-31 12h18.09.920310 +0200,
./images_eeg/Sphere_Ref_BG-grey_stim-yellow.png,0,5,5,5,9.4039378510206,,,,,,,,,,9.368692406016635,9.4611416280095,9.4611416280095,10.215999258012744,10.20046812199871,10.378709804994287,['space'],0,0.4842209710041061,None,sub-SM2,ses-1control,run-1,grey,2024-05-31_12h17.59.830,VDT,2023.2.3,119.56702245268534,2024-05-31 12h18.09.920310 +0200,
./images_eeg/Sphere_CCW-3_BG-grey_stim-white.png,0,6,6,6,10.431990545999724,,,,,,,,,,10.379792562016519,10.460792704019696,10.460792704019696,11.212336268014042,11.199526292999508,11.385000383015722,None,0,,,sub-SM2,ses-1control,run-1,grey,2024-05-31_12h17.59.830,VDT,2023.2.3,119.56702245268534,2024-05-31 12h18.09.920310 +0200,
./images_eeg/Sphere_CCW-3_BG-grey_stim-white.png,0,7,7,7,11.433014133013785,,,,,,,,,,11.385581731999991,11.460530162992654,11.460530162992654,12.210378463001689,12.20017849301803,12.444685062015196,None,0,,,sub-SM2,ses-1control,run-1,grey,2024-05-31_12h17.59.830,VDT,2023.2.3,119.56702245268534,2024-05-31 12h18.09.920310 +0200,
./images_eeg/Sphere_CW-3_BG-grey_stim-white.png,0,8,8,8,12.496189252007753,,,,,,,,,,12.445702572003938,12.496189252007753,12.496189252007753,13.2099528349936,13.235397982003633,13.418403403018601,None,0,,,sub-SM2,ses-1control,run-1,grey,2024-05-31_12h17.59.830,VDT,2023.2.3,119.56702245268534,2024-05-31 12h18.09.920310 +0200,
./images_eeg/Sphere_Ref_BG-grey_stim-yellow.png,0,9,9,9,13.465985668008216,,,,,,,,,,13.418999742018059,13.465985668008216,13.465985668008216,14.209634282015031,14.209634282015031,14.410456554003758,['space'],0,0.5002241930051241,None,sub-SM2,ses-1control,run-1,grey,2024-05-31_12h17.59.830,VDT,2023.2.3,119.56702245268534,2024-05-31 12h18.09.920310 +0200,
./images_eeg/Sphere_CW-3_BG-grey_stim-white.png,0,10,10,10,14.446284033998381,,,,,,,,,,14.411409688997082,14.459173609997379,14.459173609997379,15.209294380008942,15.199125985993305,15.435111746017355,None,0,,,sub-SM2,ses-1control,run-1,grey,2024-05-31_12h17.59.830,VDT,2023.2.3,119.56702245268534,2024-05-31 12h18.09.920310 +0200,
./images_eeg/Sphere_CW-3_BG-grey_stim-white.png,0,11,11,11,15.477093793015229,,,,,,,,,,15.435542531020474,15.477093793015229,15.477093793015229,16.208963155018864,16.225867352011846,16.39266522100661,None,0,,,sub-SM2,ses-1control,run-1,grey,2024-05-31_12h17.59.830,VDT,2023.2.3,119.56702245268534,2024-05-31 12h18.09.920310 +0200,
./images_eeg/Sphere_CCW-3_BG-grey_stim-white.png,0,12,12,12,16.42647350401967,,,,,,,,,,16.393283381010406,16.458975126006408,16.458975126006408,17.2089970910165,17.200163083005464,17.400187938008457,None,0,,,sub-SM2,ses-1control,run-1,grey,2024-05-31_12h17.59.830,VDT,2023.2.3,119.56702245268534,2024-05-31 12h18.09.920310 +0200,
./images_eeg/Sphere_CW-3_BG-grey_stim-white.png,0,13,13,13,17.434348904003855,,,,,,,,,,17.400469568994595,17.45842271501897,17.45842271501897,18.208634676004294,18.198237636010163,18.433503809006652,None,0,,,sub-SM2,ses-1control,run-1,grey,2024-05-31_12h17.59.830,VDT,2023.2.3,119.56702245268534,2024-05-31 12h18.09.920310 +0200,
./images_eeg/Sphere_CW-3_BG-grey_stim-yellow.png,0,14,14,14,18.477055577997817,,,,,,,,,,18.433811360009713,18.477055577997817,18.477055577997817,19.20840171299642,19.22453455600771,19.382539920014096,['space'],0,0.4508117660006974,None,sub-SM2,ses-1control,run-1,grey,2024-05-31_12h17.59.830,VDT,2023.2.3,119.56702245268534,2024-05-31 12h18.09.920310 +0200,
./images_eeg/Sphere_CCW-3_BG-grey_stim-white.png,0,15,15,15,19.41814599899226,,,,,,,,,,19.382923510012915,19.457967266993364,19.457967266993364,20.20773667100002,20.196698479005136,20.382163030008087,None,0,,,sub-SM2,ses-1control,run-1,grey,2024-05-31_12h17.59.830,VDT,2023.2.3,119.56702245268534,2024-05-31 12h18.09.920310 +0200,
./images_eeg/Sphere_CCW-3_BG-grey_stim-white.png,0,16,16,16,20.418170891003683,,,,,,,,,,20.382498991006287,20.457612098020036,20.457612098020036,21.20791763300076,21.197947656997712,21.399807967012748,None,0,,,sub-SM2,ses-1control,run-1,grey,2024-05-31_12h17.59.830,VDT,2023.2.3,119.56702245268534,2024-05-31 12h18.09.920310 +0200,
./images_eeg/Sphere_CW-3_BG-grey_stim-white.png,0,17,17,17,21.444026422017487,,,,,,,,,,21.40031368500786,21.465322194009786,21.465322194009786,22.20741894299863,22.20741894299863,22.39143638400128,None,0,,,sub-SM2,ses-1control,run-1,grey,2024-05-31_12h17.59.830,VDT,2023.2.3,119.56702245268534,2024-05-31 12h18.09.920310 +0200,
