image,trials.thisRepN,trials.thisTrialN,trials.thisN,trials.thisIndex,thisRow.t,notes,WaitingForScannerTrigger.started,Vertical.started,key_resp.started,WaitingForScannerTrigger.stopped,key_resp.keys,key_resp.corr,key_resp.rt,key_resp.duration,VDT.started,PresentedLine1.started,key_resp_2.started,FixDot2.started,PresentedLine1.stopped,VDT.stopped,key_resp_2.keys,key_resp_2.corr,key_resp_2.rt,key_resp_2.duration,FixDot2.stopped,key_resp_2.stopped,participant,session,run,BG_color,date,expName,psychopyVersion,frameRate,expStart,
,,,,,,,0.004604059970006347,0.009708694997243583,0.009708694997243583,1.6688972470001318,s,0,1.6208672699867748,None,,,,,,,,,,,,,sub-sepehr,ses-control-base-z-2,run-1,grey,2024-04-25_11h57.42.888,VDT,2023.2.3,120.1687519830924,2024-04-25 11h57.58.153299 +0200,
./images_beh/Sphere_CCW-1.5_BG-grey_stim-white.png,0,0,0,0,1.7292191379819997,,,,,,,,,,1.6883638779981993,1.7292191379819997,1.7292191379819997,2.4122638369444758,2.476014204963576,2.6111474879435264,None,0,,,,,sub-sepehr,ses-control-base-z-2,run-1,grey,2024-04-25_11h57.42.888,VDT,2023.2.3,120.1687519830924,2024-04-25 11h57.58.153299 +0200,
./images_beh/Sphere_CW-1.5_BG-grey_stim-white.png,0,1,1,1,2.660964021983091,,,,,,,,,,2.613971685990691,2.668758148967754,2.668758148967754,3.4088400779874064,3.4088400779874064,3.6369747579446994,None,0,,,,,sub-sepehr,ses-control-base-z-2,run-1,grey,2024-04-25_11h57.42.888,VDT,2023.2.3,120.1687519830924,2024-04-25 11h57.58.153299 +0200,
./images_beh/Sphere_Ref_BG-grey_stim-yellow.png,0,2,2,2,3.686628479976207,,,,,,,,,,3.6377853640005924,3.686628479976207,3.686628479976207,4.407625613966957,4.434601518965792,4.627038088976406,['space'],0,0.5042194100096822,None,,,sub-sepehr,ses-control-base-z-2,run-1,grey,2024-04-25_11h57.42.888,VDT,2023.2.3,120.1687519830924,2024-04-25 11h57.58.153299 +0200,
./images_beh/Sphere_CCW-1.5_BG-grey_stim-white.png,0,3,3,3,4.674315746000502,,,,,,,,,,4.629784466989804,4.674315746000502,4.674315746000502,5.418298839998897,5.425739636993967,5.609379290952347,None,0,,,,,sub-sepehr,ses-control-base-z-2,run-1,grey,2024-04-25_11h57.42.888,VDT,2023.2.3,120.1687519830924,2024-04-25 11h57.58.153299 +0200,
./images_beh/Sphere_CW-1.5_BG-grey_stim-white.png,0,4,4,4,5.656701467989478,,,,,,,,,,5.610155773989391,5.667802066949662,5.667802066949662,6.417074707977008,6.405356586968992,6.67383088497445,None,0,,,6.655554264958482,6.655554264958482,sub-sepehr,ses-control-base-z-2,run-1,grey,2024-04-25_11h57.42.888,VDT,2023.2.3,120.1687519830924,2024-04-25 11h57.58.153299 +0200,
./images_beh/Sphere_CCW-1.5_BG-grey_stim-white.png,0,5,5,5,6.7204085199628025,,,,,,,,,,6.674744303978514,6.7204085199628025,6.7204085199628025,7.417216190951876,7.4670826669898815,7.620537674985826,None,0,,,,,sub-sepehr,ses-control-base-z-2,run-1,grey,2024-04-25_11h57.42.888,VDT,2023.2.3,120.1687519830924,2024-04-25 11h57.58.153299 +0200,
./images_beh/Sphere_Ref_BG-grey_stim-yellow.png,0,6,6,6,7.667290929995943,,,,,,,,,,7.621286113979295,7.667290929995943,7.667290929995943,8.416428768949118,8.405973628978245,8.640905548993032,['space'],0,0.4362073939992115,None,,,sub-sepehr,ses-control-base-z-2,run-1,grey,2024-04-25_11h57.42.888,VDT,2023.2.3,120.1687519830924,2024-04-25 11h57.58.153299 +0200,
./images_beh/Sphere_CW-1.5_BG-grey_stim-white.png,0,7,7,7,8.688702939951327,,,,,,,,,,8.64194168994436,8.688702939951327,8.688702939951327,9.416506684967317,9.43293365399586,9.617412903986406,None,0,,,,,sub-sepehr,ses-control-base-z-2,run-1,grey,2024-04-25_11h57.42.888,VDT,2023.2.3,120.1687519830924,2024-04-25 11h57.58.153299 +0200,
./images_beh/Sphere_CW-1.5_BG-grey_stim-white.png,0,8,8,8,9.664714005950373,,,,,,,,,,9.618646862974856,9.670691053965129,9.670691053965129,10.417925518995617,10.424526768969372,10.69992134696804,None,0,,,10.668306134000886,10.685285066952929,sub-sepehr,ses-control-base-z-2,run-1,grey,2024-04-25_11h57.42.888,VDT,2023.2.3,120.1687519830924,2024-04-25 11h57.58.153299 +0200,
./images_beh/Sphere_CW-1.5_BG-grey_stim-white.png,0,9,9,9,10.747829859959893,,,,,,,,,,10.701178907998838,10.747829859959893,10.747829859959893,11.415075879951473,11.488683745963499,11.604395710979588,['space'],0,0.8108402849757113,None,,,sub-sepehr,ses-control-base-z-2,run-1,grey,2024-04-25_11h57.42.888,VDT,2023.2.3,120.1687519830924,2024-04-25 11h57.58.153299 +0200,
./images_beh/Sphere_CCW-1.5_BG-grey_stim-white.png,0,10,10,10,11.64059730200097,,,,,,,,,,11.604960751952603,11.664871349988971,11.664871349988971,12.414637242967729,12.40421562094707,12.632326602993999,None,0,,,,,sub-sepehr,ses-control-base-z-2,run-1,grey,2024-04-25_11h57.42.888,VDT,2023.2.3,120.1687519830924,2024-04-25 11h57.58.153299 +0200,
./images_beh/Sphere_CCW-1.5_BG-grey_stim-yellow.png,0,11,11,11,12.680820558976848,,,,,,,,,,12.633270299993455,12.680820558976848,12.680820558976848,13.413915247947443,13.420841790968552,13.614981879945844,['space'],0,0.48745908198179677,None,,,sub-sepehr,ses-control-base-z-2,run-1,grey,2024-04-25_11h57.42.888,VDT,2023.2.3,120.1687519830924,2024-04-25 11h57.58.153299 +0200,
./images_beh/Sphere_CW-1.5_BG-grey_stim-white.png,0,12,12,12,13.66175414196914,,,,,,,,,,13.616520534968004,13.667042801971547,13.667042801971547,14.413566600997001,14.413566600997001,14.597545908996835,None,0,,,,,sub-sepehr,ses-control-base-z-2,run-1,grey,2024-04-25_11h57.42.888,VDT,2023.2.3,120.1687519830924,2024-04-25 11h57.58.153299 +0200,
./images_beh/Sphere_Ref_BG-grey_stim-white.png,0,13,13,13,14.641578151960857,,,,,,,,,,14.598574534000363,14.668646718957461,14.668646718957461,15.412969124969095,15.412969124969095,15.647848540975247,None,0,,,,,sub-sepehr,ses-control-base-z-2,run-1,grey,2024-04-25_11h57.42.888,VDT,2023.2.3,120.1687519830924,2024-04-25 11h57.58.153299 +0200,
./images_beh/Sphere_CW-1.5_BG-grey_stim-yellow.png,0,14,14,14,15.696890692983288,,,,,,,,,,15.648733977985103,15.696890692983288,15.696890692983288,16.412192071962636,16.445924522995483,16.63564592396142,['space'],0,0.5256046850117855,None,,,sub-sepehr,ses-control-base-z-2,run-1,grey,2024-04-25_11h57.42.888,VDT,2023.2.3,120.1687519830924,2024-04-25 11h57.58.153299 +0200,
./images_beh/Sphere_CCW-1.5_BG-grey_stim-white.png,0,15,15,15,16.681717156956438,,,,,,,,,,16.63642091897782,16.681717156956438,16.681717156956438,17.41164905799087,17.428816528001335,17.579387073987164,None,0,,,,,sub-sepehr,ses-control-base-z-2,run-1,grey,2024-04-25_11h57.42.888,VDT,2023.2.3,120.1687519830924,2024-04-25 11h57.58.153299 +0200,
./images_beh/Sphere_CCW-1.5_BG-grey_stim-white.png,0,16,16,16,17.625496252963785,,,,,,,,,,17.580682543979492,17.66809704899788,17.66809704899788,18.418033241992816,18.411551029945258,18.585672821966,None,0,,,,,sub-sepehr,ses-control-base-z-2,run-1,grey,2024-04-25_11h57.42.888,VDT,2023.2.3,120.1687519830924,2024-04-25 11h57.58.153299 +0200,
./images_beh/Sphere_Ref_BG-grey_stim-white.png,0,17,17,17,18.632996401982382,,,,,,,,,,18.586490352987312,18.66792349697789,18.66792349697789,19.41771146794781,19.41093816695502,19.595053159981035,None,0,,,,,sub-sepehr,ses-control-base-z-2,run-1,grey,2024-04-25_11h57.42.888,VDT,2023.2.3,120.1687519830924,2024-04-25 11h57.58.153299 +0200,
./images_beh/Sphere_CW-1.5_BG-grey_stim-white.png,0,18,18,18,19.64010987698566,,,,,,,,,,19.59629351197509,19.666695525986142,19.666695525986142,20.417365888948552,20.410480953985825,20.594865528983064,None,0,,,,,sub-sepehr,ses-control-base-z-2,run-1,grey,2024-04-25_11h57.42.888,VDT,2023.2.3,120.1687519830924,2024-04-25 11h57.58.153299 +0200,
./images_beh/Sphere_CW-1.5_BG-grey_stim-white.png,0,19,19,19,20.639781566977035,,,,,,,,,,20.595786809979472,20.665687466971576,20.665687466971576,21.416720902954694,21.409788079967257,21.644264869973995,None,0,,,,,sub-sepehr,ses-control-base-z-2,run-1,grey,2024-04-25_11h57.42.888,VDT,2023.2.3,120.1687519830924,2024-04-25 11h57.58.153299 +0200,
./images_beh/Sphere_Ref_BG-grey_stim-yellow.png,0,20,20,20,21.695518039981835,,,,,,,,,,21.645259882963728,21.695518039981835,21.695518039981835,22.4294981949497,22.445822930953,22.59665689797839,['space'],0,0.4873179820133373,None,,,sub-sepehr,ses-control-base-z-2,run-1,grey,2024-04-25_11h57.42.888,VDT,2023.2.3,120.1687519830924,2024-04-25 11h57.58.153299 +0200,
./images_beh/Sphere_CW-1.5_BG-grey_stim-white.png,0,21,21,21,22.646263361966703,,,,,,,,,,22.59762223099824,22.66598502395209,22.66598502395209,23.416522795974743,23.409070020949002,23.59358974394854,None,0,,,,,sub-sepehr,ses-control-base-z-2,run-1,grey,2024-04-25_11h57.42.888,VDT,2023.2.3,120.1687519830924,2024-04-25 11h57.58.153299 +0200,
./images_beh/Sphere_CW-1.5_BG-grey_stim-white.png,0,22,22,22,23.641342687944416,,,,,,,,,,23.5946978389984,23.666018954943866,23.666018954943866,24.41640045295935,24.41640045295935,24.64272946998244,None,0,,,,,sub-sepehr,ses-control-base-z-2,run-1,grey,2024-04-25_11h57.42.888,VDT,2023.2.3,120.1687519830924,2024-04-25 11h57.58.153299 +0200,
./images_beh/Sphere_CCW-1.5_BG-grey_stim-white.png,0,23,23,23,24.68670002394356,,,,,,,,,,24.643384038994554,24.68670002394356,24.68670002394356,25.41602636600146,25.43177724495763,25.598596345982514,None,0,,,,,sub-sepehr,ses-control-base-z-2,run-1,grey,2024-04-25_11h57.42.888,VDT,2023.2.3,120.1687519830924,2024-04-25 11h57.58.153299 +0200,
./images_beh/Sphere_Ref_BG-grey_stim-yellow.png,0,24,24,24,25.643421311979182,,,,,,,,,,25.59919356094906,25.663966761960182,25.663966761960182,26.414877480943687,26.407555267971475,26.591983716993127,['space'],0,0.45566806598799303,None,,,sub-sepehr,ses-control-base-z-2,run-1,grey,2024-04-25_11h57.42.888,VDT,2023.2.3,120.1687519830924,2024-04-25 11h57.58.153299 +0200,
./images_beh/Sphere_CCW-1.5_BG-grey_stim-white.png,0,25,25,25,26.638755285996012,,,,,,,,,,26.593276275962126,26.66412005398888,26.66412005398888,27.425993037992157,27.409481030947063,27.62540259695379,None,0,,,,,sub-sepehr,ses-control-base-z-2,run-1,grey,2024-04-25_11h57.42.888,VDT,2023.2.3,120.1687519830924,2024-04-25 11h57.58.153299 +0200,
./images_beh/Sphere_CCW-1.5_BG-grey_stim-white.png,0,26,26,26,27.675041004957166,,,,,,,,,,27.626163506996818,27.675041004957166,27.675041004957166,28.415117657976225,28.422834711964242,28.61404410598334,None,0,,,,,sub-sepehr,ses-control-base-z-2,run-1,grey,2024-04-25_11h57.42.888,VDT,2023.2.3,120.1687519830924,2024-04-25 11h57.58.153299 +0200,
./images_beh/Sphere_CW-1.5_BG-grey_stim-white.png,0,27,27,27,28.660411030985415,,,,,,,,,,28.61476710997522,28.67272927495651,28.67272927495651,29.41371315799188,29.41371315799188,29.607676825951785,None,0,,,,,sub-sepehr,ses-control-base-z-2,run-1,grey,2024-04-25_11h57.42.888,VDT,2023.2.3,120.1687519830924,2024-04-25 11h57.58.153299 +0200,
./images_beh/Sphere_Ref_BG-grey_stim-white.png,0,28,28,28,29.65475007495843,,,,,,,,,,29.608501707960386,29.661125897953752,29.661125897953752,30.413517513952684,30.405653775960673,30.590225754946005,None,0,,,,,sub-sepehr,ses-control-base-z-2,run-1,grey,2024-04-25_11h57.42.888,VDT,2023.2.3,120.1687519830924,2024-04-25 11h57.58.153299 +0200,
./images_beh/Sphere_CW-1.5_BG-grey_stim-white.png,0,29,29,29,30.637701180996373,,,,,,,,,,30.591642913001124,30.661593542958144,30.661593542958144,31.41231732198503,31.405023055966012,31.606289673945867,None,0,,,,,sub-sepehr,ses-control-base-z-2,run-1,grey,2024-04-25_11h57.42.888,VDT,2023.2.3,120.1687519830924,2024-04-25 11h57.58.153299 +0200,
./images_beh/Sphere_CCW-1.5_BG-grey_stim-yellow.png,0,30,30,30,31.654800730000716,,,,,,,,,,31.60709022899391,31.660437539976556,31.660437539976556,32.41203004994895,32.40454174095066,32.575139572960325,['space'],0,0.4596073839929886,None,,,sub-sepehr,ses-control-base-z-2,run-1,grey,2024-04-25_11h57.42.888,VDT,2023.2.3,120.1687519830924,2024-04-25 11h57.58.153299 +0200,
./images_beh/Sphere_CCW-1.5_BG-grey_stim-white.png,0,31,31,31,32.62076323496876,,,,,,,,,,32.57609178399434,32.67344790796051,32.67344790796051,33.41270990599878,33.420677791000344,33.676845908979885,None,0,,,33.65922941995086,33.670543711981736,sub-sepehr,ses-control-base-z-2,run-1,grey,2024-04-25_11h57.42.888,VDT,2023.2.3,120.1687519830924,2024-04-25 11h57.58.153299 +0200,
./images_beh/Sphere_CCW-1.5_BG-grey_stim-white.png,0,32,32,32,33.72534334199736,,,,,,,,,,33.67758163996041,33.72534334199736,33.72534334199736,34.4120536109549,34.47687704995042,34.621584435983095,None,0,,,,,sub-sepehr,ses-control-base-z-2,run-1,grey,2024-04-25_11h57.42.888,VDT,2023.2.3,120.1687519830924,2024-04-25 11h57.58.153299 +0200,
./images_beh/Sphere_CW-1.5_BG-grey_stim-yellow.png,0,33,33,33,34.66873795998981,,,,,,,,,,34.622430329967756,34.66873795998981,34.66873795998981,35.408286625985056,35.408286625985056,35.60273582598893,['space'],0,0.5694348270189948,None,,,sub-sepehr,ses-control-base-z-2,run-1,grey,2024-04-25_11h57.42.888,VDT,2023.2.3,120.1687519830924,2024-04-25 11h57.58.153299 +0200,
./images_beh/Sphere_Ref_BG-grey_stim-white.png,0,34,34,34,35.636910674977116,,,,,,,,,,35.603399085986894,35.65806014899863,35.65806014899863,36.40749912295723,36.40229325398104,36.619282081956044,None,0,,,,,sub-sepehr,ses-control-base-z-2,run-1,grey,2024-04-25_11h57.42.888,VDT,2023.2.3,120.1687519830924,2024-04-25 11h57.58.153299 +0200,
./images_beh/Sphere_CCW-1.5_BG-grey_stim-white.png,0,35,35,35,36.652021976944525,,,,,,,,,,36.619991726998705,36.6580335709732,36.6580335709732,37.40713088196935,37.401781203981955,37.59036206000019,None,0,,,,,sub-sepehr,ses-control-base-z-2,run-1,grey,2024-04-25_11h57.42.888,VDT,2023.2.3,120.1687519830924,2024-04-25 11h57.58.153299 +0200,
./images_beh/Sphere_CCW-1.5_BG-grey_stim-white.png,0,36,36,36,37.62375475995941,,,,,,,,,,37.59073050995357,37.65707463095896,37.65707463095896,38.41787421994377,38.40089085599175,38.65139233897207,None,0,,,,38.65071627497673,sub-sepehr,ses-control-base-z-2,run-1,grey,2024-04-25_11h57.42.888,VDT,2023.2.3,120.1687519830924,2024-04-25 11h57.58.153299 +0200,
./images_beh/Sphere_CW-1.5_BG-grey_stim-white.png,0,37,37,37,38.685273898998275,,,,,,,,,,38.652017373999115,38.685273898998275,38.685273898998275,39.41759558295598,39.43409689998953,39.6022430829471,None,0,,,,,sub-sepehr,ses-control-base-z-2,run-1,grey,2024-04-25_11h57.42.888,VDT,2023.2.3,120.1687519830924,2024-04-25 11h57.58.153299 +0200,
./images_beh/Sphere_CCW-1.5_BG-grey_stim-white.png,0,38,38,38,39.64813324098941,,,,,,,,,,39.60311358398758,39.67270047200145,39.67270047200145,40.419871907972265,40.4372954069986,40.60827208298724,None,0,,,,,sub-sepehr,ses-control-base-z-2,run-1,grey,2024-04-25_11h57.42.888,VDT,2023.2.3,120.1687519830924,2024-04-25 11h57.58.153299 +0200,
./images_beh/Sphere_CW-1.5_BG-grey_stim-white.png,0,39,39,39,40.65174530999502,,,,,,,,,,40.608966228959616,40.66660656797467,40.66660656797467,41.41652052599238,41.406370654993225,41.60321049398044,None,0,,,,,sub-sepehr,ses-control-base-z-2,run-1,grey,2024-04-25_11h57.42.888,VDT,2023.2.3,120.1687519830924,2024-04-25 11h57.58.153299 +0200,
./images_beh/Sphere_CW-1.5_BG-grey_stim-yellow.png,0,40,40,40,41.65107649896527,,,,,,,,,,41.6039493859862,41.67276421195129,41.67276421195129,42.41575984295923,42.42206645599799,42.60464511997998,['space'],0,0.5903557660058141,None,,,sub-sepehr,ses-control-base-z-2,run-1,grey,2024-04-25_11h57.42.888,VDT,2023.2.3,120.1687519830924,2024-04-25 11h57.58.153299 +0200,
./images_beh/Sphere_CCW-1.5_BG-grey_stim-white.png,0,41,41,41,42.6378395879874,,,,,,,,,,42.60504435299663,42.665379760961514,42.665379760961514,43.41508057399187,43.40289261896396,43.62181368499296,None,0,,,,,sub-sepehr,ses-control-base-z-2,run-1,grey,2024-04-25_11h57.42.888,VDT,2023.2.3,120.1687519830924,2024-04-25 11h57.58.153299 +0200,
./images_beh/Sphere_CW-1.5_BG-grey_stim-white.png,0,42,42,42,43.66203082597349,,,,,,,,,,43.62232453597244,43.66203082597349,43.66203082597349,44.41531785996631,44.404121104977094,44.62238496396458,None,0,,,,,sub-sepehr,ses-control-base-z-2,run-1,grey,2024-04-25_11h57.42.888,VDT,2023.2.3,120.1687519830924,2024-04-25 11h57.58.153299 +0200,
./images_beh/Sphere_CW-1.5_BG-grey_stim-white.png,0,43,43,43,44.6679443269968,,,,,,,,,,44.62322612997377,44.6679443269968,44.6679443269968,45.41449836798711,45.41449836798711,45.572233642975334,None,0,,,,,sub-sepehr,ses-control-base-z-2,run-1,grey,2024-04-25_11h57.42.888,VDT,2023.2.3,120.1687519830924,2024-04-25 11h57.58.153299 +0200,
./images_beh/Sphere_CCW-1.5_BG-grey_stim-yellow.png,0,44,44,44,45.62114402896259,,,,,,,,,,45.57296207000036,45.66445023997221,45.66445023997221,46.41400866198819,46.40321325598052,46.598111509985756,['space'],0,0.5418191569624469,None,,,sub-sepehr,ses-control-base-z-2,run-1,grey,2024-04-25_11h57.42.888,VDT,2023.2.3,120.1687519830924,2024-04-25 11h57.58.153299 +0200,
./images_beh/Sphere_CCW-1.5_BG-grey_stim-white.png,0,45,45,45,46.64208217494888,,,,,,,,,,46.59960785496514,46.66949714598013,46.66949714598013,47.41336505196523,47.41336505196523,47.61398247996112,None,0,,,,,sub-sepehr,ses-control-base-z-2,run-1,grey,2024-04-25_11h57.42.888,VDT,2023.2.3,120.1687519830924,2024-04-25 11h57.58.153299 +0200,
./images_beh/Sphere_CCW-1.5_BG-grey_stim-white.png,0,46,46,46,47.65991008095443,,,,,,,,,,47.61523437395226,47.67972869297955,47.67972869297955,48.412731119955424,48.419496744987555,48.65330810798332,None,0,,,48.652206526952796,,sub-sepehr,ses-control-base-z-2,run-1,grey,2024-04-25_11h57.42.888,VDT,2023.2.3,120.1687519830924,2024-04-25 11h57.58.153299 +0200,
./images_beh/Sphere_Ref_BG-grey_stim-yellow.png,0,47,47,47,48.7029799259617,,,,,,,,,,48.65424535499187,48.7029799259617,48.7029799259617,49.412163453991525,49.44550007994985,49.61885684996378,['space'],0,0.5840997020131908,None,,,sub-sepehr,ses-control-base-z-2,run-1,grey,2024-04-25_11h57.42.888,VDT,2023.2.3,120.1687519830924,2024-04-25 11h57.58.153299 +0200,
./images_beh/Sphere_CW-1.5_BG-grey_stim-white.png,0,48,48,48,49.662810486974195,,,,,,,,,,49.61963313695742,49.662810486974195,49.662810486974195,50.418576946947724,50.4120148489601,50.652078980987426,None,0,,,,50.65124165196903,sub-sepehr,ses-control-base-z-2,run-1,grey,2024-04-25_11h57.42.888,VDT,2023.2.3,120.1687519830924,2024-04-25 11h57.58.153299 +0200,
./images_beh/Sphere_CCW-1.5_BG-grey_stim-white.png,0,49,49,49,50.70250152697554,,,,,,,,,,50.65280864498345,50.70250152697554,50.70250152697554,51.411345265980344,51.444562802964356,51.60216591396602,None,0,,,,,sub-sepehr,ses-control-base-z-2,run-1,grey,2024-04-25_11h57.42.888,VDT,2023.2.3,120.1687519830924,2024-04-25 11h57.58.153299 +0200,
./images_beh/Sphere_Ref_BG-grey_stim-white.png,0,50,50,50,51.65079855296062,,,,,,,,,,51.60289646097226,51.6665063459659,51.6665063459659,52.41773042595014,52.41076057194732,52.594857689982746,None,0,,,,,sub-sepehr,ses-control-base-z-2,run-1,grey,2024-04-25_11h57.42.888,VDT,2023.2.3,120.1687519830924,2024-04-25 11h57.58.153299 +0200,
./images_beh/Sphere_Ref_BG-grey_stim-yellow.png,0,51,51,51,52.64107581495773,,,,,,,,,,52.59597191697685,52.66618870396633,52.66618870396633,53.416116142994724,53.40994879399659,53.62774123996496,['space'],0,0.5492778289481066,None,,,sub-sepehr,ses-control-base-z-2,run-1,grey,2024-04-25_11h57.42.888,VDT,2023.2.3,120.1687519830924,2024-04-25 11h57.58.153299 +0200,
./images_beh/Sphere_CW-1.5_BG-grey_stim-white.png,0,52,52,52,53.67323197098449,,,,,,,,,,53.6288846579846,53.67323197098449,53.67323197098449,54.41592346696416,54.41592346696416,54.64384678698843,None,0,,,,,sub-sepehr,ses-control-base-z-2,run-1,grey,2024-04-25_11h57.42.888,VDT,2023.2.3,120.1687519830924,2024-04-25 11h57.58.153299 +0200,
./images_beh/Sphere_Ref_BG-grey_stim-white.png,0,53,53,53,54.69081683695549,,,,,,,,,,54.64504587498959,54.69081683695549,54.69081683695549,55.41786449897336,55.4318559699459,55.59960531198885,None,0,,,,,sub-sepehr,ses-control-base-z-2,run-1,grey,2024-04-25_11h57.42.888,VDT,2023.2.3,120.1687519830924,2024-04-25 11h57.58.153299 +0200,
./images_beh/Sphere_CW-1.5_BG-grey_stim-white.png,0,54,54,54,55.64550982497167,,,,,,,,,,55.600320637982804,55.6648387319874,55.6648387319874,56.41582330595702,56.408855369954836,56.58320328098489,None,0,,,,,sub-sepehr,ses-control-base-z-2,run-1,grey,2024-04-25_11h57.42.888,VDT,2023.2.3,120.1687519830924,2024-04-25 11h57.58.153299 +0200,
./images_beh/Sphere_Ref_BG-grey_stim-white.png,0,55,55,55,56.630352066946216,,,,,,,,,,56.58398573898012,56.66554041299969,56.66554041299969,57.42542274994776,57.41092716495041,57.63057621399639,None,0,,,,,sub-sepehr,ses-control-base-z-2,run-1,grey,2024-04-25_11h57.42.888,VDT,2023.2.3,120.1687519830924,2024-04-25 11h57.58.153299 +0200,
./images_beh/Sphere_CCW-1.5_BG-grey_stim-yellow.png,0,56,56,56,57.67103514197515,,,,,,,,,,57.63112216198351,57.67103514197515,57.67103514197515,58.42462866799906,58.42462866799906,58.61287402495509,['space'],0,0.47277630399912596,None,,,sub-sepehr,ses-control-base-z-2,run-1,grey,2024-04-25_11h57.42.888,VDT,2023.2.3,120.1687519830924,2024-04-25 11h57.58.153299 +0200,
./images_beh/Sphere_CW-1.5_BG-grey_stim-white.png,0,57,57,57,58.648071496980265,,,,,,,,,,58.61341947095934,58.662965507945046,58.662965507945046,59.41412364097778,59.407138742972165,59.59896829194622,None,0,,,,,sub-sepehr,ses-control-base-z-2,run-1,grey,2024-04-25_11h57.42.888,VDT,2023.2.3,120.1687519830924,2024-04-25 11h57.58.153299 +0200,
./images_beh/Sphere_CCW-1.5_BG-grey_stim-white.png,0,58,58,58,59.64499544998398,,,,,,,,,,59.599560651986394,59.66239101096289,59.66239101096289,60.41325096198125,60.406665261951275,60.59141124895541,None,0,,,,,sub-sepehr,ses-control-base-z-2,run-1,grey,2024-04-25_11h57.42.888,VDT,2023.2.3,120.1687519830924,2024-04-25 11h57.58.153299 +0200,
./images_beh/Sphere_CW-1.5_BG-grey_stim-white.png,0,59,59,59,60.63846628495958,,,,,,,,,,60.592214878997765,60.662796126969624,60.662796126969624,61.42291550996015,61.408617957960814,61.5906810159795,None,0,,,,,sub-sepehr,ses-control-base-z-2,run-1,grey,2024-04-25_11h57.42.888,VDT,2023.2.3,120.1687519830924,2024-04-25 11h57.58.153299 +0200,
./images_beh/Sphere_CCW-1.5_BG-grey_stim-white.png,0,60,60,60,61.63563616294414,,,,,,,,,,61.591333356976975,61.661769068974536,61.661769068974536,62.41263295599492,62.41263295599492,62.640951115987264,None,0,,,,,sub-sepehr,ses-control-base-z-2,run-1,grey,2024-04-25_11h57.42.888,VDT,2023.2.3,120.1687519830924,2024-04-25 11h57.58.153299 +0200,
./images_beh/Sphere_CW-1.5_BG-grey_stim-white.png,0,61,61,61,62.690026800963096,,,,,,,,,,62.64174345595529,62.690026800963096,62.690026800963096,63.42514932400081,63.43875694798771,63.63962583098328,None,0,,,,,sub-sepehr,ses-control-base-z-2,run-1,grey,2024-04-25_11h57.42.888,VDT,2023.2.3,120.1687519830924,2024-04-25 11h57.58.153299 +0200,
./images_beh/Sphere_CCW-1.5_BG-grey_stim-white.png,0,62,62,62,63.68483733700123,,,,,,,,,,63.64095304696821,63.68483733700123,63.68483733700123,64.4213162289816,64.42785504099447,64.59544544795062,None,0,,,,,sub-sepehr,ses-control-base-z-2,run-1,grey,2024-04-25_11h57.42.888,VDT,2023.2.3,120.1687519830924,2024-04-25 11h57.58.153299 +0200,
./images_beh/Sphere_CW-1.5_BG-grey_stim-yellow.png,0,63,63,63,64.6388442569878,,,,,,,,,,64.59604920796119,64.65988965699216,64.65988965699216,65.42085647495696,65.42085647495696,65.6449329929892,['space'],0,0.5153705289703794,None,,,sub-sepehr,ses-control-base-z-2,run-1,grey,2024-04-25_11h57.42.888,VDT,2023.2.3,120.1687519830924,2024-04-25 11h57.58.153299 +0200,
./images_beh/Sphere_CCW-1.5_BG-grey_stim-white.png,0,64,64,64,65.69139073998667,,,,,,,,,,65.64588187495247,65.69139073998667,65.69139073998667,66.41148806194542,66.43693520798115,66.59412672295002,None,0,,,,,sub-sepehr,ses-control-base-z-2,run-1,grey,2024-04-25_11h57.42.888,VDT,2023.2.3,120.1687519830924,2024-04-25 11h57.58.153299 +0200,
./images_beh/Sphere_CCW-1.5_BG-grey_stim-white.png,0,65,65,65,66.6394529119716,,,,,,,,,,66.59487300598994,66.65951795497676,66.65951795497676,67.41983913700096,67.40581944899168,67.63988240197068,None,0,,,,,sub-sepehr,ses-control-base-z-2,run-1,grey,2024-04-25_11h57.42.888,VDT,2023.2.3,120.1687519830924,2024-04-25 11h57.58.153299 +0200,
./images_beh/Sphere_Ref_BG-grey_stim-yellow.png,0,66,66,66,67.68700662796618,,,,,,,,,,67.64095079596154,67.68700662796618,67.68700662796618,68.40955814695917,68.43597715697251,68.59268444799818,['space'],0,0.48133278597379103,None,,,sub-sepehr,ses-control-base-z-2,run-1,grey,2024-04-25_11h57.42.888,VDT,2023.2.3,120.1687519830924,2024-04-25 11h57.58.153299 +0200,
./images_beh/Sphere_CW-1.5_BG-grey_stim-white.png,0,67,67,67,68.63781042094342,,,,,,,,,,68.59345135098556,68.6579341419856,68.6579341419856,69.42120568896644,69.40464055695338,69.59287870198023,None,0,,,,,sub-sepehr,ses-control-base-z-2,run-1,grey,2024-04-25_11h57.42.888,VDT,2023.2.3,120.1687519830924,2024-04-25 11h57.58.153299 +0200,
./images_beh/Sphere_CCW-1.5_BG-grey_stim-white.png,0,68,68,68,69.63690394599689,,,,,,,,,,69.59346841298975,69.65801330498653,69.65801330498653,70.41866534698056,70.40419574797852,70.62167242297437,None,0,,,,,sub-sepehr,ses-control-base-z-2,run-1,grey,2024-04-25_11h57.42.888,VDT,2023.2.3,120.1687519830924,2024-04-25 11h57.58.153299 +0200,
./images_beh/Sphere_Ref_BG-grey_stim-yellow.png,0,69,69,69,70.66997645900119,,,,,,,,,,70.62240981595824,70.66997645900119,70.66997645900119,71.41808089497499,71.41808089497499,71.591916766949,['space'],0,0.4892150340019725,None,,,sub-sepehr,ses-control-base-z-2,run-1,grey,2024-04-25_11h57.42.888,VDT,2023.2.3,120.1687519830924,2024-04-25 11h57.58.153299 +0200,
./images_beh/Sphere_CW-1.5_BG-grey_stim-white.png,0,70,70,70,71.63921319996007,,,,,,,,,,71.59286755794892,71.66754273098195,71.66754273098195,72.41997131699463,72.41997131699463,72.65204868698493,None,0,,,,,sub-sepehr,ses-control-base-z-2,run-1,grey,2024-04-25_11h57.42.888,VDT,2023.2.3,120.1687519830924,2024-04-25 11h57.58.153299 +0200,
./images_beh/Sphere_Ref_BG-grey_stim-white.png,0,71,71,71,72.70089709298918,,,,,,,,,,72.65285222197417,72.70089709298918,72.70089709298918,73.42007989698322,73.45053618698148,73.60812258598162,None,0,,,,,sub-sepehr,ses-control-base-z-2,run-1,grey,2024-04-25_11h57.42.888,VDT,2023.2.3,120.1687519830924,2024-04-25 11h57.58.153299 +0200,
./images_beh/Sphere_CCW-1.5_BG-grey_stim-white.png,0,72,72,72,73.65278434799984,,,,,,,,,,73.60892692499328,73.66604258900043,73.66604258900043,74.4163207889651,74.40515816299012,74.60113469895441,None,0,,,,,sub-sepehr,ses-control-base-z-2,run-1,grey,2024-04-25_11h57.42.888,VDT,2023.2.3,120.1687519830924,2024-04-25 11h57.58.153299 +0200,
./images_beh/Sphere_CW-1.5_BG-grey_stim-white.png,0,73,73,73,74.64689497597283,,,,,,,,,,74.60191587900044,74.67324920598185,74.67324920598185,75.41617351397872,75.41617351397872,75.60033640998881,None,0,,,,,sub-sepehr,ses-control-base-z-2,run-1,grey,2024-04-25_11h57.42.888,VDT,2023.2.3,120.1687519830924,2024-04-25 11h57.58.153299 +0200,
./images_beh/Sphere_CCW-1.5_BG-grey_stim-white.png,0,74,74,74,75.64760266896337,,,,,,,,,,75.60109257500153,75.66567223798484,75.66567223798484,76.41524598194519,76.40328055195278,76.63946835696697,None,0,,,,,sub-sepehr,ses-control-base-z-2,run-1,grey,2024-04-25_11h57.42.888,VDT,2023.2.3,120.1687519830924,2024-04-25 11h57.58.153299 +0200,
./images_beh/Sphere_Ref_BG-grey_stim-yellow.png,0,75,75,75,76.688124046952,,,,,,,,,,76.64031672698911,76.688124046952,76.688124046952,77.41477853996912,77.43397415895015,77.60579369199695,['space'],0,0.5288287500152364,None,,,sub-sepehr,ses-control-base-z-2,run-1,grey,2024-04-25_11h57.42.888,VDT,2023.2.3,120.1687519830924,2024-04-25 11h57.58.153299 +0200,
./images_beh/Sphere_CW-1.5_BG-grey_stim-white.png,0,76,76,76,77.65199915395351,,,,,,,,,,77.60698366694851,77.66490906995023,77.66490906995023,78.41426443995442,78.40370947797783,78.61534482397838,None,0,,,,,sub-sepehr,ses-control-base-z-2,run-1,grey,2024-04-25_11h57.42.888,VDT,2023.2.3,120.1687519830924,2024-04-25 11h57.58.153299 +0200,
./images_beh/Sphere_CCW-1.5_BG-grey_stim-white.png,0,77,77,77,78.66298415197525,,,,,,,,,,78.61640478699701,78.66842210694449,78.66842210694449,79.42110129696084,79.42110129696084,79.63156810699729,None,0,,,,,sub-sepehr,ses-control-base-z-2,run-1,grey,2024-04-25_11h57.42.888,VDT,2023.2.3,120.1687519830924,2024-04-25 11h57.58.153299 +0200,
./images_beh/Sphere_CW-1.5_BG-grey_stim-white.png,0,78,78,78,79.67640644998755,,,,,,,,,,79.63235172396526,79.67640644998755,79.67640644998755,80.4134234309895,80.42053596395999,80.5977156899753,None,0,,,,,sub-sepehr,ses-control-base-z-2,run-1,grey,2024-04-25_11h57.42.888,VDT,2023.2.3,120.1687519830924,2024-04-25 11h57.58.153299 +0200,
./images_beh/Sphere_CW-1.5_BG-grey_stim-yellow.png,0,79,79,79,80.64291618694551,,,,,,,,,,80.59850747999735,80.66863166296389,80.66863166296389,81.41272224998102,81.41272224998102,81.6971506459522,['space'],0,0.5229982130113058,None,81.65103389398428,81.66246830997989,sub-sepehr,ses-control-base-z-2,run-1,grey,2024-04-25_11h57.42.888,VDT,2023.2.3,120.1687519830924,2024-04-25 11h57.58.153299 +0200,
./images_beh/Sphere_CW-1.5_BG-grey_stim-white.png,0,80,80,80,81.74650595098501,,,,,,,,,,81.69838166399859,81.74650595098501,81.74650595098501,82.41208939295029,82.49528439895948,82.6135460579535,None,0,,,,,sub-sepehr,ses-control-base-z-2,run-1,grey,2024-04-25_11h57.42.888,VDT,2023.2.3,120.1687519830924,2024-04-25 11h57.58.153299 +0200,
./images_beh/Sphere_CW-1.5_BG-grey_stim-white.png,0,81,81,81,82.66102934296941,,,,,,,,,,82.61465298797702,82.66638934798539,82.66638934798539,83.41170116898138,83.41170116898138,83.58566216996405,None,0,,,,,sub-sepehr,ses-control-base-z-2,run-1,grey,2024-04-25_11h57.42.888,VDT,2023.2.3,120.1687519830924,2024-04-25 11h57.58.153299 +0200,
./images_beh/Sphere_CCW-1.5_BG-grey_stim-yellow.png,0,82,82,82,83.63042887795018,,,,,,,,,,83.58668240497354,83.667294268962,83.667294268962,84.41852533497149,84.41178397799376,84.6115749879973,['space'],0,0.5243112560128793,None,,,sub-sepehr,ses-control-base-z-2,run-1,grey,2024-04-25_11h57.42.888,VDT,2023.2.3,120.1687519830924,2024-04-25 11h57.58.153299 +0200,
./images_beh/Sphere_CW-1.5_BG-grey_stim-white.png,0,83,83,83,84.65527167898836,,,,,,,,,,84.61278510495322,84.66039200598607,84.66039200598607,85.41797813895391,85.39972349896561,85.64473627298139,None,0,,,,,sub-sepehr,ses-control-base-z-2,run-1,grey,2024-04-25_11h57.42.888,VDT,2023.2.3,120.1687519830924,2024-04-25 11h57.58.153299 +0200,
./images_beh/Sphere_CCW-1.5_BG-grey_stim-white.png,0,84,84,84,85.69503608997911,,,,,,,,,,85.64575018297182,85.69503608997911,85.69503608997911,86.41768776997924,86.44357120699715,86.61109011498047,None,0,,,,,sub-sepehr,ses-control-base-z-2,run-1,grey,2024-04-25_11h57.42.888,VDT,2023.2.3,120.1687519830924,2024-04-25 11h57.58.153299 +0200,
./images_beh/Sphere_Ref_BG-grey_stim-yellow.png,0,85,85,85,86.65693293797085,,,,,,,,,,86.61203617299907,86.66266373899998,86.66266373899998,87.41517938894685,87.4091983549879,87.62730830599321,['space'],0,0.5451725739985704,None,,,sub-sepehr,ses-control-base-z-2,run-1,grey,2024-04-25_11h57.42.888,VDT,2023.2.3,120.1687519830924,2024-04-25 11h57.58.153299 +0200,
./images_beh/Sphere_CCW-1.5_BG-grey_stim-white.png,0,86,86,86,87.67531323694857,,,,,,,,,,87.62871265294962,87.67531323694857,87.67531323694857,88.41581405699253,88.41581405699253,88.576438915974,None,0,,,,,sub-sepehr,ses-control-base-z-2,run-1,grey,2024-04-25_11h57.42.888,VDT,2023.2.3,120.1687519830924,2024-04-25 11h57.58.153299 +0200,
./images_beh/Sphere_CCW-1.5_BG-grey_stim-white.png,0,87,87,87,88.62237509497209,,,,,,,,,,88.5776480519562,88.66465019795578,88.66465019795578,89.42812988499645,89.42812988499645,89.66212552197976,None,0,,,,,sub-sepehr,ses-control-base-z-2,run-1,grey,2024-04-25_11h57.42.888,VDT,2023.2.3,120.1687519830924,2024-04-25 11h57.58.153299 +0200,
./images_beh/Sphere_Ref_BG-grey_stim-white.png,0,88,88,88,89.71105643594638,,,,,,,,,,89.66289887099992,89.71105643594638,89.71105643594638,90.41611295897746,90.45823710400146,90.62852149794344,None,0,,,,,sub-sepehr,ses-control-base-z-2,run-1,grey,2024-04-25_11h57.42.888,VDT,2023.2.3,120.1687519830924,2024-04-25 11h57.58.153299 +0200,
./images_beh/Sphere_Ref_BG-grey_stim-white.png,0,89,89,89,90.67630817595636,,,,,,,,,,90.62926905497443,90.67630817595636,90.67630817595636,91.4272882840014,91.4272882840014,91.62581801699707,None,0,,,,,sub-sepehr,ses-control-base-z-2,run-1,grey,2024-04-25_11h57.42.888,VDT,2023.2.3,120.1687519830924,2024-04-25 11h57.58.153299 +0200,
./images_beh/Sphere_CW-1.5_BG-grey_stim-white.png,0,90,90,90,91.67334364098497,,,,,,,,,,91.62661848997232,91.67334364098497,91.67334364098497,92.42682064697146,92.42682064697146,92.6153589009773,None,0,,,,,sub-sepehr,ses-control-base-z-2,run-1,grey,2024-04-25_11h57.42.888,VDT,2023.2.3,120.1687519830924,2024-04-25 11h57.58.153299 +0200,
./images_beh/Sphere_Ref_BG-grey_stim-white.png,0,91,91,91,92.66232812195085,,,,,,,,,,92.61609410197707,92.67396699596429,92.67396699596429,93.41296048194636,93.41296048194636,93.67416756897,None,0,,,93.65671022195602,93.6621920329635,sub-sepehr,ses-control-base-z-2,run-1,grey,2024-04-25_11h57.42.888,VDT,2023.2.3,120.1687519830924,2024-04-25 11h57.58.153299 +0200,
./images_beh/Sphere_CCW-1.5_BG-grey_stim-white.png,0,92,92,92,93.72247759596212,,,,,,,,,,93.6754000869696,93.72247759596212,93.72247759596212,94.42300828796579,94.46334090194432,94.59733099298319,None,0,,,,,sub-sepehr,ses-control-base-z-2,run-1,grey,2024-04-25_11h57.42.888,VDT,2023.2.3,120.1687519830924,2024-04-25 11h57.58.153299 +0200,
./images_beh/Sphere_CCW-1.5_BG-grey_stim-white.png,0,93,93,93,94.64186662598513,,,,,,,,,,94.5982464979752,94.66182411694899,94.66182411694899,95.41317745199194,95.40593645797344,95.60761491098674,None,0,,,,,sub-sepehr,ses-control-base-z-2,run-1,grey,2024-04-25_11h57.42.888,VDT,2023.2.3,120.1687519830924,2024-04-25 11h57.58.153299 +0200,
./images_beh/Sphere_CCW-1.5_BG-grey_stim-yellow.png,0,94,94,94,95.65556750795804,,,,,,,,,,95.60840779996943,95.66174724698067,95.66174724698067,96.42169499595184,96.40763301297557,96.63002308295108,['space'],0,0.5054018270457163,None,,,sub-sepehr,ses-control-base-z-2,run-1,grey,2024-04-25_11h57.42.888,VDT,2023.2.3,120.1687519830924,2024-04-25 11h57.58.153299 +0200,
./images_beh/Sphere_CW-1.5_BG-grey_stim-white.png,0,95,95,95,96.67757146095391,,,,,,,,,,96.63098936795723,96.67757146095391,96.67757146095391,97.41263251996133,97.42113560094731,97.69489513494773,None,0,,,97.6546230649692,97.67120963596972,sub-sepehr,ses-control-base-z-2,run-1,grey,2024-04-25_11h57.42.888,VDT,2023.2.3,120.1687519830924,2024-04-25 11h57.58.153299 +0200,
./images_beh/Sphere_Ref_BG-grey_stim-white.png,0,96,96,96,97.74252288998105,,,,,,,,,,97.69563582196133,97.74252288998105,97.74252288998105,98.41284594096942,98.48758158698911,98.6286712619476,None,0,,,,,sub-sepehr,ses-control-base-z-2,run-1,grey,2024-04-25_11h57.42.888,VDT,2023.2.3,120.1687519830924,2024-04-25 11h57.58.153299 +0200,
./images_beh/Sphere_Ref_BG-grey_stim-yellow.png,0,97,97,97,98.67411246994743,,,,,,,,,,98.62928259099135,98.67411246994743,98.67411246994743,99.41015046695247,99.42022741399705,99.59529540594667,['space'],0,0.5499873430235311,None,,,sub-sepehr,ses-control-base-z-2,run-1,grey,2024-04-25_11h57.42.888,VDT,2023.2.3,120.1687519830924,2024-04-25 11h57.58.153299 +0200,
./images_beh/Sphere_CW-1.5_BG-grey_stim-white.png,0,98,98,98,99.63879910798278,,,,,,,,,,99.59624144097324,99.65906926395837,99.65906926395837,100.40977675799513,100.40332945197588,100.64487209299114,None,0,,,,,sub-sepehr,ses-control-base-z-2,run-1,grey,2024-04-25_11h57.42.888,VDT,2023.2.3,120.1687519830924,2024-04-25 11h57.58.153299 +0200,
./images_beh/Sphere_CCW-1.5_BG-grey_stim-white.png,0,99,99,99,100.6927651859587,,,,,,,,,,100.64561084797606,100.6927651859587,100.6927651859587,101.41115902294405,101.43600137997419,101.60916862596059,None,0,,,,,sub-sepehr,ses-control-base-z-2,run-1,grey,2024-04-25_11h57.42.888,VDT,2023.2.3,120.1687519830924,2024-04-25 11h57.58.153299 +0200,
./images_beh/Sphere_CW-1.5_BG-grey_stim-yellow.png,0,100,100,100,101.65106184600154,,,,,,,,,,101.60976953594945,101.66900708596222,101.66900708596222,102.4088392709964,102.4088392709964,102.62600707699312,['space'],0,0.5069985199952498,None,,,sub-sepehr,ses-control-base-z-2,run-1,grey,2024-04-25_11h57.42.888,VDT,2023.2.3,120.1687519830924,2024-04-25 11h57.58.153299 +0200,
./images_beh/Sphere_CW-1.5_BG-grey_stim-white.png,0,101,101,101,102.67237992299488,,,,,,,,,,102.62688020494534,102.67237992299488,102.67237992299488,103.42077178595355,103.43745036399923,103.62653661496006,None,0,,,,,sub-sepehr,ses-control-base-z-2,run-1,grey,2024-04-25_11h57.42.888,VDT,2023.2.3,120.1687519830924,2024-04-25 11h57.58.153299 +0200,
./images_beh/Sphere_CW-1.5_BG-grey_stim-white.png,0,102,102,102,103.67499029095052,,,,,,,,,,103.62728005700046,103.67499029095052,103.67499029095052,104.42030189296929,104.43465819297126,104.62513843399938,None,0,,,,,sub-sepehr,ses-control-base-z-2,run-1,grey,2024-04-25_11h57.42.888,VDT,2023.2.3,120.1687519830924,2024-04-25 11h57.58.153299 +0200,
./images_beh/Sphere_CCW-1.5_BG-grey_stim-white.png,0,103,103,103,104.66541931999382,,,,,,,,,,104.6256904649781,104.66541931999382,104.66541931999382,105.42029707395704,105.42029707395704,105.57525542296935,None,0,,,,,sub-sepehr,ses-control-base-z-2,run-1,grey,2024-04-25_11h57.42.888,VDT,2023.2.3,120.1687519830924,2024-04-25 11h57.58.153299 +0200,
./images_beh/Sphere_Ref_BG-grey_stim-yellow.png,0,104,104,104,105.62125747796381,,,,,,,,,,105.57599863299401,105.66986504395027,105.66986504395027,106.41642734099878,106.41642734099878,106.58738367795013,['space'],0,0.4725537640042603,None,,,sub-sepehr,ses-control-base-z-2,run-1,grey,2024-04-25_11h57.42.888,VDT,2023.2.3,120.1687519830924,2024-04-25 11h57.58.153299 +0200,
./images_beh/Sphere_CW-1.5_BG-grey_stim-white.png,0,105,105,105,106.63375916599762,,,,,,,,,,106.58846041595098,106.66652578196954,106.66652578196954,107.41631294699619,107.40546053397702,107.6371230869554,None,0,,,,,sub-sepehr,ses-control-base-z-2,run-1,grey,2024-04-25_11h57.42.888,VDT,2023.2.3,120.1687519830924,2024-04-25 11h57.58.153299 +0200,
./images_beh/Sphere_CCW-1.5_BG-grey_stim-white.png,0,106,106,106,107.68632172996877,,,,,,,,,,107.63787555199815,107.68632172996877,107.68632172996877,108.41573350696126,108.43253095494583,108.57308183598798,None,0,,,,,sub-sepehr,ses-control-base-z-2,run-1,grey,2024-04-25_11h57.42.888,VDT,2023.2.3,120.1687519830924,2024-04-25 11h57.58.153299 +0200,
./images_beh/Sphere_CCW-1.5_BG-grey_stim-white.png,0,107,107,107,108.61786422599107,,,,,,,,,,108.57382736197906,108.67308064398821,108.67308064398821,109.42321910097962,109.42321910097962,109.60631579597248,None,0,,,,,sub-sepehr,ses-control-base-z-2,run-1,grey,2024-04-25_11h57.42.888,VDT,2023.2.3,120.1687519830924,2024-04-25 11h57.58.153299 +0200,
./images_beh/Sphere_CCW-1.5_BG-grey_stim-white.png,0,108,108,108,109.65009384194855,,,,,,,,,,109.607172348944,109.67146609094925,109.67146609094925,110.43405912898015,110.43405912898015,110.66597268998157,None,0,,,,110.66473150596721,sub-sepehr,ses-control-base-z-2,run-1,grey,2024-04-25_11h57.42.888,VDT,2023.2.3,120.1687519830924,2024-04-25 11h57.58.153299 +0200,
./images_beh/Sphere_CCW-1.5_BG-grey_stim-white.png,0,109,109,109,110.71441424195655,,,,,,,,,,110.666950314946,110.71441424195655,110.71441424195655,111.43363850394962,111.45515409397194,111.60556618397823,None,0,,,,,sub-sepehr,ses-control-base-z-2,run-1,grey,2024-04-25_11h57.42.888,VDT,2023.2.3,120.1687519830924,2024-04-25 11h57.58.153299 +0200,
./images_beh/Sphere_CW-1.5_BG-grey_stim-white.png,0,110,110,110,111.6532928289962,,,,,,,,,,111.60664613195695,111.66385463898769,111.66385463898769,112.41391610796563,112.40300810395274,112.63780007994501,None,0,,,,,sub-sepehr,ses-control-base-z-2,run-1,grey,2024-04-25_11h57.42.888,VDT,2023.2.3,120.1687519830924,2024-04-25 11h57.58.153299 +0200,
./images_beh/Sphere_Ref_BG-grey_stim-yellow.png,0,111,111,111,112.68560594599694,,,,,,,,,,112.63854393095244,112.68560594599694,112.68560594599694,113.4155793179525,113.44650924694724,113.64974692597752,['space'],0,0.48170269501861185,None,,,sub-sepehr,ses-control-base-z-2,run-1,grey,2024-04-25_11h57.42.888,VDT,2023.2.3,120.1687519830924,2024-04-25 11h57.58.153299 +0200,
./images_beh/Sphere_CW-1.5_BG-grey_stim-white.png,0,112,112,112,113.69801078998717,,,,,,,,,,113.65079105598852,113.69801078998717,113.69801078998717,114.41271269798744,114.44597740797326,114.61919741495512,None,0,,,,,sub-sepehr,ses-control-base-z-2,run-1,grey,2024-04-25_11h57.42.888,VDT,2023.2.3,120.1687519830924,2024-04-25 11h57.58.153299 +0200,
./images_beh/Sphere_CW-1.5_BG-grey_stim-white.png,0,113,113,113,114.66395211598137,,,,,,,,,,114.61997667496325,114.66395211598137,114.66395211598137,115.41211508994456,115.41211508994456,115.61971290496876,None,0,,,,,sub-sepehr,ses-control-base-z-2,run-1,grey,2024-04-25_11h57.42.888,VDT,2023.2.3,120.1687519830924,2024-04-25 11h57.58.153299 +0200,
./images_beh/Sphere_CW-1.5_BG-grey_stim-white.png,0,114,114,114,115.66881510597887,,,,,,,,,,115.62045530194882,115.66881510597887,115.66881510597887,116.41164075594861,116.41164075594861,116.63621059397701,None,0,,,,,sub-sepehr,ses-control-base-z-2,run-1,grey,2024-04-25_11h57.42.888,VDT,2023.2.3,120.1687519830924,2024-04-25 11h57.58.153299 +0200,
./images_beh/Sphere_CCW-1.5_BG-grey_stim-white.png,0,115,115,115,116.68521966499975,,,,,,,,,,116.63693672895897,116.68521966499975,116.68521966499975,117.41116783797042,117.42767067399109,117.61732729896903,None,0,,,,,sub-sepehr,ses-control-base-z-2,run-1,grey,2024-04-25_11h57.42.888,VDT,2023.2.3,120.1687519830924,2024-04-25 11h57.58.153299 +0200,
./images_beh/Sphere_CCW-1.5_BG-grey_stim-white.png,0,116,116,116,117.6568037289544,,,,,,,,,,117.6177924949443,117.66210752294865,117.66210752294865,118.41710629896261,118.4104556409875,118.61152882396709,None,0,,,,,sub-sepehr,ses-control-base-z-2,run-1,grey,2024-04-25_11h57.42.888,VDT,2023.2.3,120.1687519830924,2024-04-25 11h57.58.153299 +0200,
./images_beh/Sphere_CW-1.5_BG-grey_stim-yellow.png,0,117,117,117,118.65664390096208,,,,,,,,,,118.61242417397443,118.66154892498162,118.66154892498162,119.41647771996213,119.41008989495458,119.60000907594804,['space'],0,0.5052060820162296,None,,,sub-sepehr,ses-control-base-z-2,run-1,grey,2024-04-25_11h57.42.888,VDT,2023.2.3,120.1687519830924,2024-04-25 11h57.58.153299 +0200,
./images_beh/Sphere_Ref_BG-grey_stim-white.png,0,118,118,118,119.64291510498151,,,,,,,,,,119.60077950899722,119.66514351899968,119.66514351899968,120.41583887196612,120.40940671996213,120.61077822494553,None,0,,,,,sub-sepehr,ses-control-base-z-2,run-1,grey,2024-04-25_11h57.42.888,VDT,2023.2.3,120.1687519830924,2024-04-25 11h57.58.153299 +0200,
./images_beh/Sphere_CW-1.5_BG-grey_stim-white.png,0,119,119,119,120.65683455998078,,,,,,,,,,120.61173807794694,120.66219484998146,120.66219484998146,121.41297735297121,121.40822846395895,121.60850177699467,None,0,,,,,sub-sepehr,ses-control-base-z-2,run-1,grey,2024-04-25_11h57.42.888,VDT,2023.2.3,120.1687519830924,2024-04-25 11h57.58.153299 +0200,
./images_beh/Sphere_CCW-1.5_BG-grey_stim-yellow.png,0,120,120,120,121.64017763198353,,,,,,,,,,121.60895059094764,121.66334843396908,121.66334843396908,122.41483552695718,122.4082149459864,122.6148788399878,['space'],0,0.5201169769861735,None,,,sub-sepehr,ses-control-base-z-2,run-1,grey,2024-04-25_11h57.42.888,VDT,2023.2.3,120.1687519830924,2024-04-25 11h57.58.153299 +0200,
./images_beh/Sphere_CCW-1.5_BG-grey_stim-white.png,0,121,121,121,122.65741133695701,,,,,,,,,,122.61567113595083,122.66286037297687,122.66286037297687,123.41529040900059,123.40825062897056,123.6119445739896,None,0,,,,,sub-sepehr,ses-control-base-z-2,run-1,grey,2024-04-25_11h57.42.888,VDT,2023.2.3,120.1687519830924,2024-04-25 11h57.58.153299 +0200,
./images_beh/Sphere_Ref_BG-grey_stim-white.png,0,122,122,122,123.65715968195582,,,,,,,,,,123.61267646995839,123.66335234197322,123.66335234197322,124.42424152896274,124.42424152896274,124.61457850795705,None,0,,,,,sub-sepehr,ses-control-base-z-2,run-1,grey,2024-04-25_11h57.42.888,VDT,2023.2.3,120.1687519830924,2024-04-25 11h57.58.153299 +0200,
./images_beh/Sphere_Ref_BG-grey_stim-yellow.png,0,123,123,123,124.6560337789706,,,,,,,,,,124.61519505095202,124.66161335399374,124.66161335399374,125.42370075895451,125.42370075895451,125.61445981799625,['space'],0,0.45741661300417036,None,,,sub-sepehr,ses-control-base-z-2,run-1,grey,2024-04-25_11h57.42.888,VDT,2023.2.3,120.1687519830924,2024-04-25 11h57.58.153299 +0200,
./images_beh/Sphere_CCW-1.5_BG-grey_stim-white.png,0,124,124,124,125.66158427199116,,,,,,,,,,125.61541655199835,125.67313491099048,125.67313491099048,126.42659393697977,126.42659393697977,126.6078066729824,None,0,,,,,sub-sepehr,ses-control-base-z-2,run-1,grey,2024-04-25_11h57.42.888,VDT,2023.2.3,120.1687519830924,2024-04-25 11h57.58.153299 +0200,
./images_beh/Sphere_CW-1.5_BG-grey_stim-white.png,0,125,125,125,126.65147833398078,,,,,,,,,,126.60860148095526,126.65698946994962,126.65698946994962,127.41377481195377,127.3954984509619,127.58047709695529,None,0,,,,,sub-sepehr,ses-control-base-z-2,run-1,grey,2024-04-25_11h57.42.888,VDT,2023.2.3,120.1687519830924,2024-04-25 11h57.58.153299 +0200,
./images_beh/Sphere_CCW-1.5_BG-grey_stim-white.png,0,126,126,126,127.62613545299973,,,,,,,,,,127.58120801195037,127.6628029839485,127.6628029839485,128.4129844919662,128.40544419997605,128.61292125395266,None,0,,,,,sub-sepehr,ses-control-base-z-2,run-1,grey,2024-04-25_11h57.42.888,VDT,2023.2.3,120.1687519830924,2024-04-25 11h57.58.153299 +0200,
./images_beh/Sphere_CW-1.5_BG-grey_stim-white.png,0,127,127,127,128.65696588897845,,,,,,,,,,128.61351027397905,128.67182499798946,128.67182499798946,129.41293336899253,129.41293336899253,129.70631169498665,None,0,,,129.65509869996458,129.6610463859979,sub-sepehr,ses-control-base-z-2,run-1,grey,2024-04-25_11h57.42.888,VDT,2023.2.3,120.1687519830924,2024-04-25 11h57.58.153299 +0200,
./images_beh/Sphere_CCW-1.5_BG-grey_stim-yellow.png,0,128,128,128,129.75417774397647,,,,,,,,,,129.70745965995593,129.75417774397647,129.75417774397647,130.41106536594452,130.4945864249603,130.7050422579632,['space'],0,0.5089945810032077,None,130.654259153991,,sub-sepehr,ses-control-base-z-2,run-1,grey,2024-04-25_11h57.42.888,VDT,2023.2.3,120.1687519830924,2024-04-25 11h57.58.153299 +0200,
./images_beh/Sphere_CCW-1.5_BG-grey_stim-white.png,0,129,129,129,130.7511539979605,,,,,,,,,,130.70623888395494,130.7511539979605,130.7511539979605,131.42303000297397,131.49546575295972,131.62855506699998,None,0,,,,,sub-sepehr,ses-control-base-z-2,run-1,grey,2024-04-25_11h57.42.888,VDT,2023.2.3,120.1687519830924,2024-04-25 11h57.58.153299 +0200,
./images_beh/Sphere_CCW-1.5_BG-grey_stim-white.png,0,130,130,130,131.67612717597513,,,,,,,,,,131.62935072300024,131.67612717597513,131.67612717597513,132.42028308199951,132.4278575629578,132.58840645494638,None,0,,,,,sub-sepehr,ses-control-base-z-2,run-1,grey,2024-04-25_11h57.42.888,VDT,2023.2.3,120.1687519830924,2024-04-25 11h57.58.153299 +0200,
./images_beh/Sphere_Ref_BG-grey_stim-yellow.png,0,131,131,131,132.63309791096253,,,,,,,,,,132.58920564496657,132.6591059899656,132.6591059899656,133.4220122579718,133.4220122579718,133.5876606949605,['space'],0,0.5000257670180872,None,,,sub-sepehr,ses-control-base-z-2,run-1,grey,2024-04-25_11h57.42.888,VDT,2023.2.3,120.1687519830924,2024-04-25 11h57.58.153299 +0200,
./images_beh/Sphere_CCW-1.5_BG-grey_stim-white.png,0,132,132,132,133.63204943895107,,,,,,,,,,133.58900559396716,133.65847327094525,133.65847327094525,134.41008284298005,134.402967831993,134.5940932139638,None,0,,,,,sub-sepehr,ses-control-base-z-2,run-1,grey,2024-04-25_11h57.42.888,VDT,2023.2.3,120.1687519830924,2024-04-25 11h57.58.153299 +0200,
./images_beh/Sphere_CW-1.5_BG-grey_stim-white.png,0,133,133,133,134.64142659999197,,,,,,,,,,134.59482488996582,134.6581546139787,134.6581546139787,135.408297508955,135.40175952296704,135.653235369944,None,0,,,135.6518315099529,135.6518315099529,sub-sepehr,ses-control-base-z-2,run-1,grey,2024-04-25_11h57.42.888,VDT,2023.2.3,120.1687519830924,2024-04-25 11h57.58.153299 +0200,
./images_beh/Sphere_CW-1.5_BG-grey_stim-yellow.png,0,134,134,134,135.70136576495133,,,,,,,,,,135.65400195500115,135.70136576495133,135.70136576495133,136.4092686919612,136.4405772530008,136.6356416119961,['space'],0,0.505725449998863,None,,,sub-sepehr,ses-control-base-z-2,run-1,grey,2024-04-25_11h57.42.888,VDT,2023.2.3,120.1687519830924,2024-04-25 11h57.58.153299 +0200,
./images_beh/Sphere_CW-1.5_BG-grey_stim-white.png,0,135,135,135,136.6795389649924,,,,,,,,,,136.63652934599668,136.6795389649924,136.6795389649924,137.41742558398983,137.42384266498266,137.60217657499015,None,0,,,,,sub-sepehr,ses-control-base-z-2,run-1,grey,2024-04-25_11h57.42.888,VDT,2023.2.3,120.1687519830924,2024-04-25 11h57.58.153299 +0200,
./images_beh/Sphere_Ref_BG-grey_stim-white.png,0,136,136,136,137.64829034399008,,,,,,,,,,137.60342352697626,137.66727933799848,137.66727933799848,138.41936076199636,138.41936076199636,138.61866594100138,None,0,,,,,sub-sepehr,ses-control-base-z-2,run-1,grey,2024-04-25_11h57.42.888,VDT,2023.2.3,120.1687519830924,2024-04-25 11h57.58.153299 +0200,
./images_beh/Sphere_Ref_BG-grey_stim-white.png,0,137,137,137,138.6664021089673,,,,,,,,,,138.6194891599589,138.67250414995942,138.67250414995942,139.41683242697036,139.42409775796114,139.63457348698284,None,0,,,,,sub-sepehr,ses-control-base-z-2,run-1,grey,2024-04-25_11h57.42.888,VDT,2023.2.3,120.1687519830924,2024-04-25 11h57.58.153299 +0200,
./images_beh/Sphere_CW-1.5_BG-grey_stim-white.png,0,138,138,138,139.67898415098898,,,,,,,,,,139.63535223598592,139.67898415098898,139.67898415098898,140.41863155795727,140.43304215098033,140.59017762198346,None,0,,,,,sub-sepehr,ses-control-base-z-2,run-1,grey,2024-04-25_11h57.42.888,VDT,2023.2.3,120.1687519830924,2024-04-25 11h57.58.153299 +0200,
./images_beh/Sphere_CCW-1.5_BG-grey_stim-white.png,0,139,139,139,140.63654460798716,,,,,,,,,,140.59092817700002,140.66621495998697,140.66621495998697,141.4157864859444,141.4050883279997,141.60226440097904,None,0,,,,,sub-sepehr,ses-control-base-z-2,run-1,grey,2024-04-25_11h57.42.888,VDT,2023.2.3,120.1687519830924,2024-04-25 11h57.58.153299 +0200,
./images_beh/Sphere_Ref_BG-grey_stim-yellow.png,0,140,140,140,141.64963637798792,,,,,,,,,,141.60300554597052,141.66509355895687,141.66509355895687,142.41540070896735,142.40438062296016,142.61608890397474,['space'],0,0.5192458449746482,None,,,sub-sepehr,ses-control-base-z-2,run-1,grey,2024-04-25_11h57.42.888,VDT,2023.2.3,120.1687519830924,2024-04-25 11h57.58.153299 +0200,
./images_beh/Sphere_CCW-1.5_BG-grey_stim-white.png,0,141,141,141,142.66237596195424,,,,,,,,,,142.61737105395878,142.66761056997348,142.66761056997348,143.4172397259972,143.4172397259972,143.6326121619786,None,0,,,,,sub-sepehr,ses-control-base-z-2,run-1,grey,2024-04-25_11h57.42.888,VDT,2023.2.3,120.1687519830924,2024-04-25 11h57.58.153299 +0200,
./images_beh/Sphere_CW-1.5_BG-grey_stim-white.png,0,142,142,142,143.67979052499868,,,,,,,,,,143.63338974199723,143.67979052499868,143.67979052499868,144.41429514996707,144.42139950895216,144.6384746429976,None,0,,,,,sub-sepehr,ses-control-base-z-2,run-1,grey,2024-04-25_11h57.42.888,VDT,2023.2.3,120.1687519830924,2024-04-25 11h57.58.153299 +0200,
./images_beh/Sphere_CW-1.5_BG-grey_stim-white.png,0,143,143,143,144.6822173849796,,,,,,,,,,144.63907648896566,144.6822173849796,144.6822173849796,145.4218577099964,145.43015432998072,145.60472502798075,None,0,,,,,sub-sepehr,ses-control-base-z-2,run-1,grey,2024-04-25_11h57.42.888,VDT,2023.2.3,120.1687519830924,2024-04-25 11h57.58.153299 +0200,
./images_beh/Sphere_CCW-1.5_BG-grey_stim-white.png,0,144,144,144,145.64731992396992,,,,,,,,,,145.60549166495912,145.6631315559498,145.6631315559498,146.4130315069924,146.40225914894836,146.63327523699263,None,0,,,,,sub-sepehr,ses-control-base-z-2,run-1,grey,2024-04-25_11h57.42.888,VDT,2023.2.3,120.1687519830924,2024-04-25 11h57.58.153299 +0200,
./images_beh/Sphere_CCW-1.5_BG-grey_stim-white.png,0,145,145,145,146.68284637399483,,,,,,,,,,146.63401432498358,146.68284637399483,146.68284637399483,147.4125039379578,147.42881376296282,147.59684612596175,None,0,,,,,sub-sepehr,ses-control-base-z-2,run-1,grey,2024-04-25_11h57.42.888,VDT,2023.2.3,120.1687519830924,2024-04-25 11h57.58.153299 +0200,
./images_beh/Sphere_Ref_BG-grey_stim-yellow.png,0,146,146,146,147.6445984809543,,,,,,,,,,147.59800375899067,147.66716672596522,147.66716672596522,148.41263298899867,148.41263298899867,148.585998672992,['space'],0,0.4845993560156785,None,,,sub-sepehr,ses-control-base-z-2,run-1,grey,2024-04-25_11h57.42.888,VDT,2023.2.3,120.1687519830924,2024-04-25 11h57.58.153299 +0200,
./images_beh/Sphere_CW-1.5_BG-grey_stim-white.png,0,147,147,147,148.6337377159507,,,,,,,,,,148.58693593094358,148.66777713998454,148.66777713998454,149.41123814694583,149.41123814694583,149.64559213997563,None,0,,,,,sub-sepehr,ses-control-base-z-2,run-1,grey,2024-04-25_11h57.42.888,VDT,2023.2.3,120.1687519830924,2024-04-25 11h57.58.153299 +0200,
./images_beh/Sphere_CW-1.5_BG-grey_stim-white.png,0,148,148,148,149.69410559895914,,,,,,,,,,149.64679670496844,149.69410559895914,149.69410559895914,150.41870762297185,150.43448714597616,150.60184193996247,None,0,,,,,sub-sepehr,ses-control-base-z-2,run-1,grey,2024-04-25_11h57.42.888,VDT,2023.2.3,120.1687519830924,2024-04-25 11h57.58.153299 +0200,
./images_beh/Sphere_CCW-1.5_BG-grey_stim-white.png,0,149,149,149,150.64806397497887,,,,,,,,,,150.60267805698095,150.66619863396045,150.66619863396045,151.4173790779896,151.41051756596426,151.63503323099576,None,0,,,,,sub-sepehr,ses-control-base-z-2,run-1,grey,2024-04-25_11h57.42.888,VDT,2023.2.3,120.1687519830924,2024-04-25 11h57.58.153299 +0200,
./images_beh/Sphere_CCW-1.5_BG-grey_stim-yellow.png,0,150,150,150,151.68383044097573,,,,,,,,,,151.63575839198893,151.68383044097573,151.68383044097573,152.41660499596037,152.42663067998365,152.62721957394388,['space'],0,0.49189556698547676,None,,,sub-sepehr,ses-control-base-z-2,run-1,grey,2024-04-25_11h57.42.888,VDT,2023.2.3,120.1687519830924,2024-04-25 11h57.58.153299 +0200,
./images_beh/Sphere_CCW-1.5_BG-grey_stim-white.png,0,151,151,151,152.67384592199232,,,,,,,,,,152.62867185898358,152.67384592199232,152.67384592199232,153.41643426398514,153.41643426398514,153.59413350495743,None,0,,,,,sub-sepehr,ses-control-base-z-2,run-1,grey,2024-04-25_11h57.42.888,VDT,2023.2.3,120.1687519830924,2024-04-25 11h57.58.153299 +0200,
./images_beh/Sphere_CCW-1.5_BG-grey_stim-white.png,0,152,152,152,153.63896574097453,,,,,,,,,,153.59512413298944,153.66484173497884,153.66484173497884,154.4159366869717,154.4089668499655,154.59342249599285,None,0,,,,,sub-sepehr,ses-control-base-z-2,run-1,grey,2024-04-25_11h57.42.888,VDT,2023.2.3,120.1687519830924,2024-04-25 11h57.58.153299 +0200,
./images_beh/Sphere_CW-1.5_BG-grey_stim-white.png,0,153,153,153,154.6403363699792,,,,,,,,,,154.594564332976,154.66454544098815,154.66454544098815,155.41510221199133,155.40820976899704,155.63218146999134,None,0,,,,,sub-sepehr,ses-control-base-z-2,run-1,grey,2024-04-25_11h57.42.888,VDT,2023.2.3,120.1687519830924,2024-04-25 11h57.58.153299 +0200,
./images_beh/Sphere_Ref_BG-grey_stim-yellow.png,0,154,154,154,155.67671027197503,,,,,,,,,,155.6328728759545,155.67671027197503,155.67671027197503,156.41613174899248,156.42456257896265,156.60967873496702,['space'],0,0.4427954370039515,None,,,sub-sepehr,ses-control-base-z-2,run-1,grey,2024-04-25_11h57.42.888,VDT,2023.2.3,120.1687519830924,2024-04-25 11h57.58.153299 +0200,
./images_beh/Sphere_CW-1.5_BG-grey_stim-white.png,0,155,155,155,156.65560366294812,,,,,,,,,,156.61069203197258,156.66116316296393,156.66116316296393,157.4148049139767,157.4148049139767,157.63236219296232,None,0,,,,,sub-sepehr,ses-control-base-z-2,run-1,grey,2024-04-25_11h57.42.888,VDT,2023.2.3,120.1687519830924,2024-04-25 11h57.58.153299 +0200,
./images_beh/Sphere_CCW-1.5_BG-grey_stim-white.png,0,156,156,156,157.6782464819844,,,,,,,,,,157.63294915598817,157.6782464819844,157.6782464819844,158.41437104396755,158.42615235998528,158.62504622497363,None,0,,,,,sub-sepehr,ses-control-base-z-2,run-1,grey,2024-04-25_11h57.42.888,VDT,2023.2.3,120.1687519830924,2024-04-25 11h57.58.153299 +0200,
./images_beh/Sphere_CW-1.5_BG-grey_stim-white.png,0,157,157,157,158.67310287198052,,,,,,,,,,158.6258380759973,158.67310287198052,158.67310287198052,159.41421277995687,159.41421277995687,159.5805756629561,None,0,,,,,sub-sepehr,ses-control-base-z-2,run-1,grey,2024-04-25_11h57.42.888,VDT,2023.2.3,120.1687519830924,2024-04-25 11h57.58.153299 +0200,
./images_beh/Sphere_CW-1.5_BG-grey_stim-yellow.png,0,158,158,158,159.6264058369561,,,,,,,,,,159.581162449962,159.66307125397725,159.66307125397725,160.41127473500092,160.41127473500092,160.60667701496277,['space'],0,0.504105465952307,None,,,sub-sepehr,ses-control-base-z-2,run-1,grey,2024-04-25_11h57.42.888,VDT,2023.2.3,120.1687519830924,2024-04-25 11h57.58.153299 +0200,
./images_beh/Sphere_CW-1.5_BG-grey_stim-white.png,0,159,159,159,160.65301709796768,,,,,,,,,,160.60810224694433,160.658049035992,160.658049035992,161.41256738698576,161.40527923795162,161.60849122796208,None,0,,,,,sub-sepehr,ses-control-base-z-2,run-1,grey,2024-04-25_11h57.42.888,VDT,2023.2.3,120.1687519830924,2024-04-25 11h57.58.153299 +0200,
./images_beh/Sphere_Ref_BG-grey_stim-white.png,0,160,160,160,161.65480870596366,,,,,,,,,,161.6092203219887,161.660334442975,161.660334442975,162.42134339996846,162.40741045895265,162.59644717094488,None,0,,,,,sub-sepehr,ses-control-base-z-2,run-1,grey,2024-04-25_11h57.42.888,VDT,2023.2.3,120.1687519830924,2024-04-25 11h57.58.153299 +0200,
./images_beh/Sphere_Ref_BG-grey_stim-white.png,0,161,161,161,162.6438140559476,,,,,,,,,,162.5974709209986,162.66059943195432,162.66059943195432,163.41153902898077,163.41153902898077,163.62433154397877,None,0,,,,,sub-sepehr,ses-control-base-z-2,run-1,grey,2024-04-25_11h57.42.888,VDT,2023.2.3,120.1687519830924,2024-04-25 11h57.58.153299 +0200,
./images_beh/Sphere_CCW-1.5_BG-grey_stim-white.png,0,162,162,162,163.67308753699763,,,,,,,,,,163.62506754195783,163.67308753699763,163.67308753699763,164.41209213796537,164.42041690595215,164.6547712139436,None,0,,,164.65371041197795,,sub-sepehr,ses-control-base-z-2,run-1,grey,2024-04-25_11h57.42.888,VDT,2023.2.3,120.1687519830924,2024-04-25 11h57.58.153299 +0200,
./images_beh/Sphere_CCW-1.5_BG-grey_stim-white.png,0,163,163,163,164.69945067499066,,,,,,,,,,164.65556855098112,164.69945067499066,164.69945067499066,165.41993622196605,165.4431486739777,165.58776425395627,None,0,,,,,sub-sepehr,ses-control-base-z-2,run-1,grey,2024-04-25_11h57.42.888,VDT,2023.2.3,120.1687519830924,2024-04-25 11h57.58.153299 +0200,
./images_beh/Sphere_CCW-1.5_BG-grey_stim-white.png,0,164,164,164,165.63437390094623,,,,,,,,,,165.5885650779819,165.66003271797672,165.66003271797672,166.4106254259823,166.4106254259823,166.65360044396948,None,0,,,,166.65274500497617,sub-sepehr,ses-control-base-z-2,run-1,grey,2024-04-25_11h57.42.888,VDT,2023.2.3,120.1687519830924,2024-04-25 11h57.58.153299 +0200,
./images_beh/Sphere_CCW-1.5_BG-grey_stim-yellow.png,0,165,165,165,166.70253039896488,,,,,,,,,,166.6547938750009,166.70253039896488,166.70253039896488,167.4099095799611,167.4416027899715,167.68648535496322,['space'],0,0.40106895205099136,None,167.66878504795022,,sub-sepehr,ses-control-base-z-2,run-1,grey,2024-04-25_11h57.42.888,VDT,2023.2.3,120.1687519830924,2024-04-25 11h57.58.153299 +0200,
./images_beh/Sphere_CCW-1.5_BG-grey_stim-white.png,0,166,166,166,167.730724782974,,,,,,,,,,167.68727762496565,167.730724782974,167.730724782974,168.4093955719727,168.47489248297643,168.6256783849676,None,0,,,,,sub-sepehr,ses-control-base-z-2,run-1,grey,2024-04-25_11h57.42.888,VDT,2023.2.3,120.1687519830924,2024-04-25 11h57.58.153299 +0200,
./images_beh/Sphere_CW-1.5_BG-grey_stim-white.png,0,167,167,167,168.67518680397188,,,,,,,,,,168.62646315194434,168.67518680397188,168.67518680397188,169.4090691069723,169.4178071669885,169.6024845209904,None,0,,,,,sub-sepehr,ses-control-base-z-2,run-1,grey,2024-04-25_11h57.42.888,VDT,2023.2.3,120.1687519830924,2024-04-25 11h57.58.153299 +0200,
./images_beh/Sphere_Ref_BG-grey_stim-white.png,0,168,168,168,169.64964491996216,,,,,,,,,,169.603626453958,169.6676976509625,169.6676976509625,170.4174245489994,170.4066308819456,170.6567006559926,None,0,,,170.6559252239531,170.6559252239531,sub-sepehr,ses-control-base-z-2,run-1,grey,2024-04-25_11h57.42.888,VDT,2023.2.3,120.1687519830924,2024-04-25 11h57.58.153299 +0200,
./images_beh/Sphere_Ref_BG-grey_stim-yellow.png,0,169,169,169,170.70237759698648,,,,,,,,,,170.65741415094817,170.70237759698648,170.70237759698648,171.41660357895307,171.45006165700033,171.6175752549898,['space'],0,0.5162918209680356,None,,,sub-sepehr,ses-control-base-z-2,run-1,grey,2024-04-25_11h57.42.888,VDT,2023.2.3,120.1687519830924,2024-04-25 11h57.58.153299 +0200,
./images_beh/Sphere_CW-1.5_BG-grey_stim-white.png,0,170,170,170,171.66506664198823,,,,,,,,,,171.61884411994833,171.66987995896488,171.66987995896488,172.41653061495163,172.41653061495163,172.67215269594453,None,0,,,172.65458160697017,172.66627692600014,sub-sepehr,ses-control-base-z-2,run-1,grey,2024-04-25_11h57.42.888,VDT,2023.2.3,120.1687519830924,2024-04-25 11h57.58.153299 +0200,
./images_beh/Sphere_CW-1.5_BG-grey_stim-white.png,0,171,171,171,172.7168515539961,,,,,,,,,,172.6730316139874,172.7168515539961,172.7168515539961,173.41843050398165,173.465908921964,173.6003534939955,None,0,,,,,sub-sepehr,ses-control-base-z-2,run-1,grey,2024-04-25_11h57.42.888,VDT,2023.2.3,120.1687519830924,2024-04-25 11h57.58.153299 +0200,
./images_beh/Sphere_CW-1.5_BG-grey_stim-white.png,0,172,172,172,173.64498437894508,,,,,,,,,,173.60109753796132,173.66540533897933,173.66540533897933,174.41533503995743,174.40501847694395,174.64973791094963,None,0,,,,,sub-sepehr,ses-control-base-z-2,run-1,grey,2024-04-25_11h57.42.888,VDT,2023.2.3,120.1687519830924,2024-04-25 11h57.58.153299 +0200,
./images_beh/Sphere_CW-1.5_BG-grey_stim-yellow.png,0,173,173,173,174.69429271796253,,,,,,,,,,174.6504521559691,174.69429271796253,174.69429271796253,175.41475995996734,175.4382554339827,175.58952130394755,['space'],0,0.49648029799573123,None,,,sub-sepehr,ses-control-base-z-2,run-1,grey,2024-04-25_11h57.42.888,VDT,2023.2.3,120.1687519830924,2024-04-25 11h57.58.153299 +0200,
./images_beh/Sphere_CCW-1.5_BG-grey_stim-white.png,0,174,174,174,175.63710164796794,,,,,,,,,,175.59047119197203,175.66477722197305,175.66477722197305,176.41458123596385,176.40395382599672,176.653558942955,None,0,,,176.65279371995712,176.65279371995712,sub-sepehr,ses-control-base-z-2,run-1,grey,2024-04-25_11h57.42.888,VDT,2023.2.3,120.1687519830924,2024-04-25 11h57.58.153299 +0200,
./images_beh/Sphere_CW-1.5_BG-grey_stim-white.png,0,175,175,175,176.70153040194418,,,,,,,,,,176.6542796799913,176.70153040194418,176.70153040194418,177.4141008509905,177.44692813896108,177.57058354996843,None,0,,,,,sub-sepehr,ses-control-base-z-2,run-1,grey,2024-04-25_11h57.42.888,VDT,2023.2.3,120.1687519830924,2024-04-25 11h57.58.153299 +0200,
./images_beh/Sphere_Ref_BG-grey_stim-yellow.png,0,176,176,176,177.614380925952,,,,,,,,,,177.57127786695492,177.66401357995346,177.66401357995346,178.4133876929991,178.40262934699422,178.57069939299254,['space'],0,0.4553275080397725,None,,,sub-sepehr,ses-control-base-z-2,run-1,grey,2024-04-25_11h57.42.888,VDT,2023.2.3,120.1687519830924,2024-04-25 11h57.58.153299 +0200,
./images_beh/Sphere_CW-1.5_BG-grey_stim-white.png,0,177,177,177,178.6190742359613,,,,,,,,,,178.5716580619919,178.670719695976,178.670719695976,179.41277171298862,179.41949971794384,179.5992629249813,None,0,,,,,sub-sepehr,ses-control-base-z-2,run-1,grey,2024-04-25_11h57.42.888,VDT,2023.2.3,120.1687519830924,2024-04-25 11h57.58.153299 +0200,
./images_beh/Sphere_CCW-1.5_BG-grey_stim-white.png,0,178,178,178,179.6466356589808,,,,,,,,,,179.5999964409857,179.66797807294643,179.66797807294643,180.4123150309897,180.4123150309897,180.65264927898534,None,0,,,180.65199615596794,,sub-sepehr,ses-control-base-z-2,run-1,grey,2024-04-25_11h57.42.888,VDT,2023.2.3,120.1687519830924,2024-04-25 11h57.58.153299 +0200,
./images_beh/Sphere_Ref_BG-grey_stim-white.png,0,179,179,179,180.6982049520011,,,,,,,,,,180.6532345469459,180.6982049520011,180.6982049520011,181.41405151895015,181.44557548197918,181.60203463200014,None,0,,,,,sub-sepehr,ses-control-base-z-2,run-1,grey,2024-04-25_11h57.42.888,VDT,2023.2.3,120.1687519830924,2024-04-25 11h57.58.153299 +0200,
./images_beh/Sphere_CCW-1.5_BG-grey_stim-white.png,0,180,180,180,181.64576361997752,,,,,,,,,,181.6027619599481,181.66718812996987,181.66718812996987,182.41818414494628,182.41128695296356,182.6358974239556,None,0,,,,,sub-sepehr,ses-control-base-z-2,run-1,grey,2024-04-25_11h57.42.888,VDT,2023.2.3,120.1687519830924,2024-04-25 11h57.58.153299 +0200,
./images_beh/Sphere_CCW-1.5_BG-grey_stim-white.png,0,181,181,181,182.68377082899678,,,,,,,,,,182.63663118198747,182.68377082899678,182.68377082899678,183.41801797994412,183.4277400749852,183.61782877595397,None,0,,,,,sub-sepehr,ses-control-base-z-2,run-1,grey,2024-04-25_11h57.42.888,VDT,2023.2.3,120.1687519830924,2024-04-25 11h57.58.153299 +0200,
./images_beh/Sphere_Ref_BG-grey_stim-white.png,0,182,182,182,183.66074566997122,,,,,,,,,,183.61842660797993,183.66593285294948,183.66593285294948,184.41751278197626,184.41065133799566,184.61125445197104,None,0,,,,,sub-sepehr,ses-control-base-z-2,run-1,grey,2024-04-25_11h57.42.888,VDT,2023.2.3,120.1687519830924,2024-04-25 11h57.58.153299 +0200,
./images_beh/Sphere_CW-1.5_BG-grey_stim-yellow.png,0,183,183,183,184.65679789095884,,,,,,,,,,184.6121674979804,184.67678424197948,184.67678424197948,185.41479036095552,185.4256694179494,185.65032132796478,['space'],0,0.46793713397346437,None,,,sub-sepehr,ses-control-base-z-2,run-1,grey,2024-04-25_11h57.42.888,VDT,2023.2.3,120.1687519830924,2024-04-25 11h57.58.153299 +0200,
./images_beh/Sphere_CCW-1.5_BG-grey_stim-white.png,0,184,184,184,185.69888706499478,,,,,,,,,,185.6512783599901,185.69888706499478,185.69888706499478,186.41619702999014,186.44227362098172,186.58279860398034,None,0,,,,,sub-sepehr,ses-control-base-z-2,run-1,grey,2024-04-25_11h57.42.888,VDT,2023.2.3,120.1687519830924,2024-04-25 11h57.58.153299 +0200,
./images_beh/Sphere_CW-1.5_BG-grey_stim-white.png,0,185,185,185,186.62435913598165,,,,,,,,,,186.58338257699506,186.66562807699665,186.66562807699665,187.41548133594915,187.40877269697376,187.59980735299177,None,0,,,,,sub-sepehr,ses-control-base-z-2,run-1,grey,2024-04-25_11h57.42.888,VDT,2023.2.3,120.1687519830924,2024-04-25 11h57.58.153299 +0200,
./images_beh/Sphere_Ref_BG-grey_stim-yellow.png,0,186,186,186,187.64461629797006,,,,,,,,,,187.60060068499297,187.6641389259603,187.6641389259603,188.41438647999894,188.4081617409829,188.5921388619463,['space'],0,0.5596815920434892,None,,,sub-sepehr,ses-control-base-z-2,run-1,grey,2024-04-25_11h57.42.888,VDT,2023.2.3,120.1687519830924,2024-04-25 11h57.58.153299 +0200,
./images_beh/Sphere_CW-1.5_BG-grey_stim-white.png,0,187,187,187,188.64132336794864,,,,,,,,,,188.5937364489655,188.6635029449826,188.6635029449826,189.41380259295693,189.40753705595853,189.6323709259741,None,0,,,,,sub-sepehr,ses-control-base-z-2,run-1,grey,2024-04-25_11h57.42.888,VDT,2023.2.3,120.1687519830924,2024-04-25 11h57.58.153299 +0200,
./images_beh/Sphere_CW-1.5_BG-grey_stim-white.png,0,188,188,188,189.6801517449785,,,,,,,,,,189.63315592799336,189.6801517449785,189.6801517449785,190.41611044999445,190.42404204898048,190.61070669599576,None,0,,,,,sub-sepehr,ses-control-base-z-2,run-1,grey,2024-04-25_11h57.42.888,VDT,2023.2.3,120.1687519830924,2024-04-25 11h57.58.153299 +0200,
./images_beh/Sphere_Ref_BG-grey_stim-white.png,0,189,189,189,190.6584350099438,,,,,,,,,,190.61144722998142,190.66410221596016,190.66410221596016,191.4134149889578,191.4134149889578,191.57442757295212,None,0,,,,,sub-sepehr,ses-control-base-z-2,run-1,grey,2024-04-25_11h57.42.888,VDT,2023.2.3,120.1687519830924,2024-04-25 11h57.58.153299 +0200,
./images_beh/Sphere_CCW-1.5_BG-grey_stim-yellow.png,0,190,190,190,191.61857436294667,,,,,,,,,,191.57524675596505,191.6761798269581,191.6761798269581,192.4143608249724,192.4233271109988,192.6137320419657,['space'],0,0.49960906500928104,None,,,sub-sepehr,ses-control-base-z-2,run-1,grey,2024-04-25_11h57.42.888,VDT,2023.2.3,120.1687519830924,2024-04-25 11h57.58.153299 +0200,
./images_beh/Sphere_CW-1.5_BG-grey_stim-white.png,0,191,191,191,192.6580704029766,,,,,,,,,,192.6146865389892,192.67258066899376,192.67258066899376,193.41247797594406,193.41247797594406,193.6072348439484,None,0,,,,,sub-sepehr,ses-control-base-z-2,run-1,grey,2024-04-25_11h57.42.888,VDT,2023.2.3,120.1687519830924,2024-04-25 11h57.58.153299 +0200,
./images_beh/Sphere_CW-1.5_BG-grey_stim-white.png,0,192,192,192,193.65441228996497,,,,,,,,,,193.60797631798778,193.66040988999885,193.66040988999885,194.41224554699147,194.40531693096273,194.57550122396788,None,0,,,,,sub-sepehr,ses-control-base-z-2,run-1,grey,2024-04-25_11h57.42.888,VDT,2023.2.3,120.1687519830924,2024-04-25 11h57.58.153299 +0200,
./images_beh/Sphere_CCW-1.5_BG-grey_stim-white.png,0,193,193,193,194.62133077695034,,,,,,,,,,194.5762377079809,194.66105737397447,194.66105737397447,195.41065198299475,195.40441954997368,195.6058713189559,None,0,,,,,sub-sepehr,ses-control-base-z-2,run-1,grey,2024-04-25_11h57.42.888,VDT,2023.2.3,120.1687519830924,2024-04-25 11h57.58.153299 +0200,
./images_beh/Sphere_Ref_BG-grey_stim-yellow.png,0,194,194,194,195.64952986495337,,,,,,,,,,195.60667835199274,195.65914600598626,195.65914600598626,196.41043092799373,196.4040636079735,196.63860074197873,['space'],0,0.5152713709976524,None,,,sub-sepehr,ses-control-base-z-2,run-1,grey,2024-04-25_11h57.42.888,VDT,2023.2.3,120.1687519830924,2024-04-25 11h57.58.153299 +0200,
./images_beh/Sphere_CCW-1.5_BG-grey_stim-white.png,0,195,195,195,196.6892305649817,,,,,,,,,,196.64007063600002,196.6892305649817,196.6892305649817,197.41251193598146,197.43720436596777,197.62141459895065,None,0,,,,,sub-sepehr,ses-control-base-z-2,run-1,grey,2024-04-25_11h57.42.888,VDT,2023.2.3,120.1687519830924,2024-04-25 11h57.58.153299 +0200,
./images_beh/Sphere_CCW-1.5_BG-grey_stim-white.png,0,196,196,196,197.66858438396594,,,,,,,,,,197.6224490069435,197.66858438396594,197.66858438396594,198.41025962500134,198.41025962500134,198.59001627197722,None,0,,,,,sub-sepehr,ses-control-base-z-2,run-1,grey,2024-04-25_11h57.42.888,VDT,2023.2.3,120.1687519830924,2024-04-25 11h57.58.153299 +0200,
./images_beh/Sphere_CW-1.5_BG-grey_stim-white.png,0,197,197,197,198.63748263096204,,,,,,,,,,198.59075104497606,198.6587799549452,198.6587799549452,199.41031446895795,199.40279692894546,199.64300853194436,None,0,,,,,sub-sepehr,ses-control-base-z-2,run-1,grey,2024-04-25_11h57.42.888,VDT,2023.2.3,120.1687519830924,2024-04-25 11h57.58.153299 +0200,
./images_beh/Sphere_CW-1.5_BG-grey_stim-white.png,0,198,198,198,199.69001508294605,,,,,,,,,,199.64373316499405,199.69001508294605,199.69001508294605,200.4102880259743,200.4353162199841,200.64339754194953,None,0,,,,,sub-sepehr,ses-control-base-z-2,run-1,grey,2024-04-25_11h57.42.888,VDT,2023.2.3,120.1687519830924,2024-04-25 11h57.58.153299 +0200,
./images_beh/Sphere_CCW-1.5_BG-grey_stim-white.png,0,199,199,199,200.693208853947,,,,,,,,,,200.6444276549737,200.693208853947,200.693208853947,201.4100545399706,201.43514536699513,201.58604020799976,None,0,,,,,sub-sepehr,ses-control-base-z-2,run-1,grey,2024-04-25_11h57.42.888,VDT,2023.2.3,120.1687519830924,2024-04-25 11h57.58.153299 +0200,
./images_beh/Sphere_Ref_BG-grey_stim-yellow.png,0,200,200,200,201.6329355999478,,,,,,,,,,201.58718524995493,201.66831236198777,201.66831236198777,202.4201109969872,202.4064762829803,202.60785069997655,['space'],0,0.5150268589495681,None,,,sub-sepehr,ses-control-base-z-2,run-1,grey,2024-04-25_11h57.42.888,VDT,2023.2.3,120.1687519830924,2024-04-25 11h57.58.153299 +0200,
./images_beh/Sphere_Ref_BG-grey_stim-white.png,0,201,201,201,202.6502891559503,,,,,,,,,,202.60869161097798,202.66825493995566,202.66825493995566,203.4176092009875,203.4176092009875,203.58476860198425,None,0,,,,,sub-sepehr,ses-control-base-z-2,run-1,grey,2024-04-25_11h57.42.888,VDT,2023.2.3,120.1687519830924,2024-04-25 11h57.58.153299 +0200,
./images_beh/Sphere_CCW-1.5_BG-grey_stim-white.png,0,202,202,202,203.62960795598337,,,,,,,,,,203.58566337596858,203.66771124996012,203.66771124996012,204.41677099396475,204.40672063198872,204.63723883096827,None,0,,,,,sub-sepehr,ses-control-base-z-2,run-1,grey,2024-04-25_11h57.42.888,VDT,2023.2.3,120.1687519830924,2024-04-25 11h57.58.153299 +0200,
./images_beh/Sphere_CCW-1.5_BG-grey_stim-white.png,0,203,203,203,204.68648554297397,,,,,,,,,,204.63799350499175,204.68648554297397,204.68648554297397,205.41634883795632,205.4330898579792,205.59034534695093,None,0,,,,,sub-sepehr,ses-control-base-z-2,run-1,grey,2024-04-25_11h57.42.888,VDT,2023.2.3,120.1687519830924,2024-04-25 11h57.58.153299 +0200,
./images_beh/Sphere_CW-1.5_BG-grey_stim-white.png,0,204,204,204,205.63369200198213,,,,,,,,,,205.5909401109675,205.66840408399003,205.66840408399003,206.41581824596506,206.41581824596506,206.6364660349791,None,0,,,,,sub-sepehr,ses-control-base-z-2,run-1,grey,2024-04-25_11h57.42.888,VDT,2023.2.3,120.1687519830924,2024-04-25 11h57.58.153299 +0200,
./images_beh/Sphere_CCW-1.5_BG-grey_stim-white.png,0,205,205,205,206.6839915419696,,,,,,,,,,206.63720498094335,206.6839915419696,206.6839915419696,207.4152978709899,207.43195115798153,207.62303430499742,None,0,,,,,sub-sepehr,ses-control-base-z-2,run-1,grey,2024-04-25_11h57.42.888,VDT,2023.2.3,120.1687519830924,2024-04-25 11h57.58.153299 +0200,
./images_beh/Sphere_CW-1.5_BG-grey_stim-yellow.png,0,206,206,206,207.66836336394772,,,,,,,,,,207.62371197796892,207.66836336394772,207.66836336394772,208.42196766095003,208.42196766095003,208.58465903095203,['space'],0,0.5234312020475045,None,,,sub-sepehr,ses-control-base-z-2,run-1,grey,2024-04-25_11h57.42.888,VDT,2023.2.3,120.1687519830924,2024-04-25 11h57.58.153299 +0200,
./images_beh/Sphere_CCW-1.5_BG-grey_stim-white.png,0,207,207,207,208.6308666659752,,,,,,,,,,208.58562454895582,208.66722935595317,208.66722935595317,209.42255478195148,209.41461858997354,209.58942727395333,None,0,,,,,sub-sepehr,ses-control-base-z-2,run-1,grey,2024-04-25_11h57.42.888,VDT,2023.2.3,120.1687519830924,2024-04-25 11h57.58.153299 +0200,
./images_beh/Sphere_CW-1.5_BG-grey_stim-white.png,0,208,208,208,209.63509464496747,,,,,,,,,,209.5901648539584,209.66462383494945,209.66462383494945,210.4212612369447,210.41414656699635,210.5816281249863,None,0,,,,,sub-sepehr,ses-control-base-z-2,run-1,grey,2024-04-25_11h57.42.888,VDT,2023.2.3,120.1687519830924,2024-04-25 11h57.58.153299 +0200,
./images_beh/Sphere_CCW-1.5_BG-grey_stim-yellow.png,0,209,209,209,210.62852298095822,,,,,,,,,,210.58237554697553,210.6640698889969,210.6640698889969,211.41288182896096,211.41288182896096,211.60351302300114,['space'],0,0.5680458099814132,None,,,sub-sepehr,ses-control-base-z-2,run-1,grey,2024-04-25_11h57.42.888,VDT,2023.2.3,120.1687519830924,2024-04-25 11h57.58.153299 +0200,
./images_beh/Sphere_CW-1.5_BG-grey_stim-white.png,0,210,210,210,211.64756188797764,,,,,,,,,,211.60436183895217,211.6689788629883,211.6689788629883,212.43204314395553,212.43204314395553,212.58099146798486,None,0,,,,,sub-sepehr,ses-control-base-z-2,run-1,grey,2024-04-25_11h57.42.888,VDT,2023.2.3,120.1687519830924,2024-04-25 11h57.58.153299 +0200,
./images_beh/Sphere_Ref_BG-grey_stim-white.png,0,211,211,211,212.6286968739587,,,,,,,,,,212.58175168995513,212.6693273279816,212.6693273279816,213.4121451889514,213.4121451889514,213.61982638796326,None,0,,,,,sub-sepehr,ses-control-base-z-2,run-1,grey,2024-04-25_11h57.42.888,VDT,2023.2.3,120.1687519830924,2024-04-25 11h57.58.153299 +0200,
./images_beh/Sphere_Ref_BG-grey_stim-yellow.png,0,212,212,212,213.6663509089849,,,,,,,,,,213.62057035794714,213.6663509089849,213.6663509089849,214.41813213098794,214.4114700879436,214.62923376896651,['space'],0,0.5098365629673935,None,,,sub-sepehr,ses-control-base-z-2,run-1,grey,2024-04-25_11h57.42.888,VDT,2023.2.3,120.1687519830924,2024-04-25 11h57.58.153299 +0200,
./images_beh/Sphere_CW-1.5_BG-grey_stim-white.png,0,213,213,213,214.6760154129588,,,,,,,,,,214.63041555997916,214.6760154129588,214.6760154129588,215.4111048009945,215.41766246099724,215.59547166596167,None,0,,,,,sub-sepehr,ses-control-base-z-2,run-1,grey,2024-04-25_11h57.42.888,VDT,2023.2.3,120.1687519830924,2024-04-25 11h57.58.153299 +0200,
./images_beh/Sphere_CCW-1.5_BG-grey_stim-white.png,0,214,214,214,215.63805899897125,,,,,,,,,,215.59611220197985,215.66698028199608,215.66698028199608,216.4175837559742,216.4107170899515,216.6118744739797,None,0,,,,,sub-sepehr,ses-control-base-z-2,run-1,grey,2024-04-25_11h57.42.888,VDT,2023.2.3,120.1687519830924,2024-04-25 11h57.58.153299 +0200,
./images_beh/Sphere_CW-1.5_BG-grey_stim-white.png,0,215,215,215,216.65826381999068,,,,,,,,,,216.61288527399302,216.66404853499262,216.66404853499262,217.41692831896944,217.40999213396572,217.584445845976,None,0,,,,,sub-sepehr,ses-control-base-z-2,run-1,grey,2024-04-25_11h57.42.888,VDT,2023.2.3,120.1687519830924,2024-04-25 11h57.58.153299 +0200,
./images_beh/Sphere_CCW-1.5_BG-grey_stim-white.png,0,216,216,216,217.63160206197063,,,,,,,,,,217.58521868899697,217.66611675400054,217.66611675400054,218.41675288195256,218.40966267499607,218.59380390797742,None,0,,,,,sub-sepehr,ses-control-base-z-2,run-1,grey,2024-04-25_11h57.42.888,VDT,2023.2.3,120.1687519830924,2024-04-25 11h57.58.153299 +0200,
./images_beh/Sphere_CCW-1.5_BG-grey_stim-white.png,0,217,217,217,218.64076013799058,,,,,,,,,,218.59477095195325,218.66530781099573,218.66530781099573,219.4160924559692,219.40914633398643,219.62684974697186,None,0,,,,,sub-sepehr,ses-control-base-z-2,run-1,grey,2024-04-25_11h57.42.888,VDT,2023.2.3,120.1687519830924,2024-04-25 11h57.58.153299 +0200,
./images_beh/Sphere_CW-1.5_BG-grey_stim-white.png,0,218,218,218,219.6745766539825,,,,,,,,,,219.62765950296307,219.6745766539825,219.6745766539825,220.41507217596518,220.41507217596518,220.65956863295287,None,0,,,220.65855710598407,,sub-sepehr,ses-control-base-z-2,run-1,grey,2024-04-25_11h57.42.888,VDT,2023.2.3,120.1687519830924,2024-04-25 11h57.58.153299 +0200,
./images_beh/Sphere_Ref_BG-grey_stim-white.png,0,219,219,219,220.70773673197255,,,,,,,,,,220.6606654499774,220.70773673197255,220.70773673197255,221.41624567296822,221.44748970598448,221.63215264695464,None,0,,,,,sub-sepehr,ses-control-base-z-2,run-1,grey,2024-04-25_11h57.42.888,VDT,2023.2.3,120.1687519830924,2024-04-25 11h57.58.153299 +0200,
./images_beh/Sphere_CW-1.5_BG-grey_stim-yellow.png,0,220,220,220,221.6797684589983,,,,,,,,,,221.6328792119748,221.6797684589983,221.6797684589983,222.41534609999508,222.4243882659939,222.62548478599638,['space'],0,0.4874713410390541,None,,,sub-sepehr,ses-control-base-z-2,run-1,grey,2024-04-25_11h57.42.888,VDT,2023.2.3,120.1687519830924,2024-04-25 11h57.58.153299 +0200,
./images_beh/Sphere_CW-1.5_BG-grey_stim-white.png,0,221,221,221,222.67411676398478,,,,,,,,,,222.62694485095562,222.67411676398478,222.67411676398478,223.4128591659828,223.4128591659828,223.64714730199194,None,0,,,,,sub-sepehr,ses-control-base-z-2,run-1,grey,2024-04-25_11h57.42.888,VDT,2023.2.3,120.1687519830924,2024-04-25 11h57.58.153299 +0200,
./images_beh/Sphere_CW-1.5_BG-grey_stim-white.png,0,222,222,222,223.69190867897123,,,,,,,,,,223.6476493209484,223.69190867897123,223.69190867897123,224.42607283999678,224.44258160394384,224.60808487597387,None,0,,,,,sub-sepehr,ses-control-base-z-2,run-1,grey,2024-04-25_11h57.42.888,VDT,2023.2.3,120.1687519830924,2024-04-25 11h57.58.153299 +0200,
./images_beh/Sphere_Ref_BG-grey_stim-yellow.png,0,223,223,223,224.65303449495696,,,,,,,,,,224.6088708549505,224.67486871697474,224.67486871697474,225.41378874296788,225.4230565939797,225.70956719695823,['space'],0,0.47576564498012885,None,225.67256735498086,225.67256735498086,sub-sepehr,ses-control-base-z-2,run-1,grey,2024-04-25_11h57.42.888,VDT,2023.2.3,120.1687519830924,2024-04-25 11h57.58.153299 +0200,
./images_beh/Sphere_CCW-1.5_BG-grey_stim-white.png,0,224,224,224,225.75758532295004,,,,,,,,,,225.71058939397335,225.75758532295004,225.75758532295004,226.41219900298165,226.50555938098114,226.62293691199739,None,0,,,,,sub-sepehr,ses-control-base-z-2,run-1,grey,2024-04-25_11h57.42.888,VDT,2023.2.3,120.1687519830924,2024-04-25 11h57.58.153299 +0200,
./images_beh/Sphere_CW-1.5_BG-grey_stim-white.png,0,225,225,225,226.67120118095772,,,,,,,,,,226.6241854179534,226.67120118095772,226.67120118095772,227.4129004009883,227.4129004009883,227.61262916197302,None,0,,,,,sub-sepehr,ses-control-base-z-2,run-1,grey,2024-04-25_11h57.42.888,VDT,2023.2.3,120.1687519830924,2024-04-25 11h57.58.153299 +0200,
./images_beh/Sphere_Ref_BG-grey_stim-yellow.png,0,226,226,226,227.65895866195206,,,,,,,,,,227.61336177197518,227.67180990899215,227.67180990899215,228.41105594899273,228.41105594899273,228.6292118819547,['space'],0,0.5195069820038043,None,,,sub-sepehr,ses-control-base-z-2,run-1,grey,2024-04-25_11h57.42.888,VDT,2023.2.3,120.1687519830924,2024-04-25 11h57.58.153299 +0200,
./images_beh/Sphere_CCW-1.5_BG-grey_stim-white.png,0,227,227,227,228.6750841169851,,,,,,,,,,228.63018341298448,228.6750841169851,228.6750841169851,229.41251477098558,229.42346405697754,229.5954331009998,None,0,,,,,sub-sepehr,ses-control-base-z-2,run-1,grey,2024-04-25_11h57.42.888,VDT,2023.2.3,120.1687519830924,2024-04-25 11h57.58.153299 +0200,
./images_beh/Sphere_CW-1.5_BG-grey_stim-white.png,0,228,228,228,229.64220808795653,,,,,,,,,,229.59638372896006,229.6597930439748,229.6597930439748,230.41113309399225,230.4035803959705,230.64401102397824,None,0,,,,,sub-sepehr,ses-control-base-z-2,run-1,grey,2024-04-25_11h57.42.888,VDT,2023.2.3,120.1687519830924,2024-04-25 11h57.58.153299 +0200,
./images_beh/Sphere_CCW-1.5_BG-grey_stim-white.png,0,229,229,229,230.68884582899045,,,,,,,,,,230.64469470095355,230.68884582899045,230.68884582899045,231.41193528694566,231.43637925898656,231.6212101239944,None,0,,,,,sub-sepehr,ses-control-base-z-2,run-1,grey,2024-04-25_11h57.42.888,VDT,2023.2.3,120.1687519830924,2024-04-25 11h57.58.153299 +0200,
./images_beh/Sphere_CCW-1.5_BG-grey_stim-white.png,0,230,230,230,231.67129537597066,,,,,,,,,,231.62250665796455,231.67129537597066,231.67129537597066,232.4107917099609,232.41934659698745,232.62783023994416,None,0,,,,,sub-sepehr,ses-control-base-z-2,run-1,grey,2024-04-25_11h57.42.888,VDT,2023.2.3,120.1687519830924,2024-04-25 11h57.58.153299 +0200,
./images_beh/Sphere_CCW-1.5_BG-grey_stim-yellow.png,0,231,231,231,232.67774951196043,,,,,,,,,,232.62871891795658,232.67774951196043,232.67774951196043,233.41911525296746,233.4268707119627,233.6593294449849,['space'],0,0.46490772400284186,None,233.6582745759515,,sub-sepehr,ses-control-base-z-2,run-1,grey,2024-04-25_11h57.42.888,VDT,2023.2.3,120.1687519830924,2024-04-25 11h57.58.153299 +0200,
./images_beh/Sphere_Ref_BG-grey_stim-white.png,0,232,232,232,233.70798511098837,,,,,,,,,,233.66028677095892,233.70798511098837,233.70798511098837,234.4096276179771,234.46834171499358,234.609675406944,None,0,,,,,sub-sepehr,ses-control-base-z-2,run-1,grey,2024-04-25_11h57.42.888,VDT,2023.2.3,120.1687519830924,2024-04-25 11h57.58.153299 +0200,
./images_beh/Sphere_CW-1.5_BG-grey_stim-white.png,0,233,233,233,234.65371476195287,,,,,,,,,,234.6103782549617,234.6678744079545,234.6678744079545,235.41787381796166,235.4070868299459,235.6087405589642,None,0,,,,,sub-sepehr,ses-control-base-z-2,run-1,grey,2024-04-25_11h57.42.888,VDT,2023.2.3,120.1687519830924,2024-04-25 11h57.58.153299 +0200,
./images_beh/Sphere_Ref_BG-grey_stim-white.png,0,234,234,234,235.6512637519627,,,,,,,,,,235.60932623699773,235.65695443499135,235.65695443499135,236.4198702199501,236.4036082859966,236.59186948399292,None,0,,,,,sub-sepehr,ses-control-base-z-2,run-1,grey,2024-04-25_11h57.42.888,VDT,2023.2.3,120.1687519830924,2024-04-25 11h57.58.153299 +0200,
./images_beh/Sphere_CCW-1.5_BG-grey_stim-white.png,0,235,235,235,236.63748364994535,,,,,,,,,,236.59259915095754,236.6670618749922,236.6670618749922,237.4190150569775,237.4055870049633,237.5916261789971,None,0,,,,,sub-sepehr,ses-control-base-z-2,run-1,grey,2024-04-25_11h57.42.888,VDT,2023.2.3,120.1687519830924,2024-04-25 11h57.58.153299 +0200,
./images_beh/Sphere_Ref_BG-grey_stim-white.png,0,236,236,236,237.6386384429643,,,,,,,,,,237.59234475099947,237.66868208098458,237.66868208098458,238.41637965198606,238.41637965198606,238.60168909298955,None,0,,,,,sub-sepehr,ses-control-base-z-2,run-1,grey,2024-04-25_11h57.42.888,VDT,2023.2.3,120.1687519830924,2024-04-25 11h57.58.153299 +0200,
./images_beh/Sphere_CCW-1.5_BG-grey_stim-white.png,0,237,237,237,238.64873117097886,,,,,,,,,,238.60248236195184,238.6663470979547,238.6663470979547,239.4156853449531,239.40547890297603,239.633811933978,None,0,,,,,sub-sepehr,ses-control-base-z-2,run-1,grey,2024-04-25_11h57.42.888,VDT,2023.2.3,120.1687519830924,2024-04-25 11h57.58.153299 +0200,
./images_beh/Sphere_CCW-1.5_BG-grey_stim-white.png,0,238,238,238,239.68099960195832,,,,,,,,,,239.63469972700113,239.68099960195832,239.68099960195832,240.41503660497256,240.42210285598412,240.606920901977,None,0,,,,,sub-sepehr,ses-control-base-z-2,run-1,grey,2024-04-25_11h57.42.888,VDT,2023.2.3,120.1687519830924,2024-04-25 11h57.58.153299 +0200,
./images_beh/Sphere_Ref_BG-grey_stim-yellow.png,0,239,239,239,240.65286910696886,,,,,,,,,,240.60764579795068,240.66483922698535,240.66483922698535,241.41456307598855,241.4031479989644,241.63874455698533,['space'],0,0.47927855199668556,None,,,sub-sepehr,ses-control-base-z-2,run-1,grey,2024-04-25_11h57.42.888,VDT,2023.2.3,120.1687519830924,2024-04-25 11h57.58.153299 +0200,
./images_beh/Sphere_CW-1.5_BG-grey_stim-white.png,0,240,240,240,241.68493868596852,,,,,,,,,,241.63961318397196,241.68493868596852,241.68493868596852,242.4224669749965,242.43093898898223,242.59844387497287,None,0,,,,,sub-sepehr,ses-control-base-z-2,run-1,grey,2024-04-25_11h57.42.888,VDT,2023.2.3,120.1687519830924,2024-04-25 11h57.58.153299 +0200,
./images_beh/Sphere_CCW-1.5_BG-grey_stim-white.png,0,241,241,241,242.64421690499876,,,,,,,,,,242.59939175099134,242.67050696798833,242.67050696798833,243.43038326199166,243.43038326199166,243.6058302479796,None,0,,,,,sub-sepehr,ses-control-base-z-2,run-1,grey,2024-04-25_11h57.42.888,VDT,2023.2.3,120.1687519830924,2024-04-25 11h57.58.153299 +0200,
./images_beh/Sphere_CW-1.5_BG-grey_stim-white.png,0,242,242,242,243.65470802696655,,,,,,,,,,243.6068894469645,243.6632102219737,243.6632102219737,244.4206976479618,244.41331550496398,244.59786757896654,None,0,,,,,sub-sepehr,ses-control-base-z-2,run-1,grey,2024-04-25_11h57.42.888,VDT,2023.2.3,120.1687519830924,2024-04-25 11h57.58.153299 +0200,
./images_beh/Sphere_Ref_BG-grey_stim-yellow.png,0,243,243,243,244.6455370359472,,,,,,,,,,244.59906689595664,244.66883109899936,244.66883109899936,245.41737843299052,245.41737843299052,245.665699863981,['space'],0,0.5228846950340085,None,,,sub-sepehr,ses-control-base-z-2,run-1,grey,2024-04-25_11h57.42.888,VDT,2023.2.3,120.1687519830924,2024-04-25 11h57.58.153299 +0200,
./images_beh/Sphere_CW-1.5_BG-grey_stim-white.png,0,244,244,244,245.71480198198697,,,,,,,,,,245.6666648949613,245.71480198198697,245.71480198198697,246.4201540009817,246.45391504798317,246.6860264959978,None,0,,,246.67882849398302,,sub-sepehr,ses-control-base-z-2,run-1,grey,2024-04-25_11h57.42.888,VDT,2023.2.3,120.1687519830924,2024-04-25 11h57.58.153299 +0200,
./images_beh/Sphere_CCW-1.5_BG-grey_stim-white.png,0,245,245,245,246.73411946097622,,,,,,,,,,246.6867473589955,246.73411946097622,246.73411946097622,247.41160828596912,247.47812363295816,247.61913826095406,None,0,,,,,sub-sepehr,ses-control-base-z-2,run-1,grey,2024-04-25_11h57.42.888,VDT,2023.2.3,120.1687519830924,2024-04-25 11h57.58.153299 +0200,
./images_beh/Sphere_CCW-1.5_BG-grey_stim-yellow.png,0,246,246,246,247.6674538779771,,,,,,,,,,247.6198652649764,247.6674538779771,247.6674538779771,248.4110164839658,248.4110164839658,248.6189603979583,['space'],0,0.4839003139641136,None,,,sub-sepehr,ses-control-base-z-2,run-1,grey,2024-04-25_11h57.42.888,VDT,2023.2.3,120.1687519830924,2024-04-25 11h57.58.153299 +0200,
./images_beh/Sphere_CCW-1.5_BG-grey_stim-white.png,0,247,247,247,248.66757847799454,,,,,,,,,,248.61989984294632,248.66757847799454,248.66757847799454,249.4169223269564,249.41063391097123,249.63411134696798,None,0,,,,,sub-sepehr,ses-control-base-z-2,run-1,grey,2024-04-25_11h57.42.888,VDT,2023.2.3,120.1687519830924,2024-04-25 11h57.58.153299 +0200,
./images_beh/Sphere_CW-1.5_BG-grey_stim-white.png,0,248,248,248,249.6786101280013,,,,,,,,,,249.6347015509964,249.6786101280013,249.6786101280013,250.41734301496763,250.42682557197986,250.64405887696194,None,0,,,,,sub-sepehr,ses-control-base-z-2,run-1,grey,2024-04-25_11h57.42.888,VDT,2023.2.3,120.1687519830924,2024-04-25 11h57.58.153299 +0200,
./images_beh/Sphere_CW-1.5_BG-grey_stim-yellow.png,0,249,249,249,250.69097996497294,,,,,,,,,,250.6451456459472,250.69097996497294,250.69097996497294,251.4161429159576,251.43217861297308,251.59416322695324,['space'],0,0.5083948569954373,None,,,sub-sepehr,ses-control-base-z-2,run-1,grey,2024-04-25_11h57.42.888,VDT,2023.2.3,120.1687519830924,2024-04-25 11h57.58.153299 +0200,
./images_beh/Sphere_CW-1.5_BG-grey_stim-white.png,0,250,250,250,251.6409259219654,,,,,,,,,,251.59519727696897,251.66408361995127,251.66408361995127,252.4162425629911,252.40915849496378,252.65979987598257,None,0,,,252.65889249899192,252.65889249899192,sub-sepehr,ses-control-base-z-2,run-1,grey,2024-04-25_11h57.42.888,VDT,2023.2.3,120.1687519830924,2024-04-25 11h57.58.153299 +0200,
./images_beh/Sphere_CW-1.5_BG-grey_stim-white.png,0,251,251,251,252.70535392599413,,,,,,,,,,252.66095860599307,252.70535392599413,252.70535392599413,253.4165737919975,253.4486168199801,253.61632113094674,None,0,,,,,sub-sepehr,ses-control-base-z-2,run-1,grey,2024-04-25_11h57.42.888,VDT,2023.2.3,120.1687519830924,2024-04-25 11h57.58.153299 +0200,
./images_beh/Sphere_CW-1.5_BG-grey_stim-white.png,0,252,252,252,253.65935238898965,,,,,,,,,,253.61697325698333,253.67486829694826,253.67486829694826,254.41508649196476,254.41508649196476,254.62533698696643,None,0,,,,,sub-sepehr,ses-control-base-z-2,run-1,grey,2024-04-25_11h57.42.888,VDT,2023.2.3,120.1687519830924,2024-04-25 11h57.58.153299 +0200,
./images_beh/Sphere_Ref_BG-grey_stim-white.png,0,253,253,253,254.67177359794732,,,,,,,,,,254.62650611496065,254.67177359794732,254.67177359794732,255.4143819459714,255.4143819459714,255.61491346399998,None,0,,,,,sub-sepehr,ses-control-base-z-2,run-1,grey,2024-04-25_11h57.42.888,VDT,2023.2.3,120.1687519830924,2024-04-25 11h57.58.153299 +0200,
./images_beh/Sphere_Ref_BG-grey_stim-yellow.png,0,254,254,254,255.66255932999775,,,,,,,,,,255.61565129895462,255.6738404299831,255.6738404299831,256.4237656639889,256.4237656639889,256.6078116699937,['space'],0,0.5017641919548623,None,,,sub-sepehr,ses-control-base-z-2,run-1,grey,2024-04-25_11h57.42.888,VDT,2023.2.3,120.1687519830924,2024-04-25 11h57.58.153299 +0200,
./images_beh/Sphere_CW-1.5_BG-grey_stim-white.png,0,255,255,255,256.6531108279596,,,,,,,,,,256.60919260099763,256.6578067559749,256.6578067559749,257.42559307295596,257.4087902089814,257.63209774298593,None,0,,,,,sub-sepehr,ses-control-base-z-2,run-1,grey,2024-04-25_11h57.42.888,VDT,2023.2.3,120.1687519830924,2024-04-25 11h57.58.153299 +0200,
./images_beh/Sphere_CCW-1.5_BG-grey_stim-white.png,0,256,256,256,257.6818483299576,,,,,,,,,,257.63293510396034,257.6818483299576,257.6818483299576,258.42327466298593,258.4306899999501,258.5905833069701,None,0,,,,,sub-sepehr,ses-control-base-z-2,run-1,grey,2024-04-25_11h57.42.888,VDT,2023.2.3,120.1687519830924,2024-04-25 11h57.58.153299 +0200,
./images_beh/Sphere_CCW-1.5_BG-grey_stim-white.png,0,257,257,257,258.6344631759566,,,,,,,,,,258.59138581098523,258.66242623794824,258.66242623794824,259.4123517499538,259.40543780394364,259.6069915239932,None,0,,,,,sub-sepehr,ses-control-base-z-2,run-1,grey,2024-04-25_11h57.42.888,VDT,2023.2.3,120.1687519830924,2024-04-25 11h57.58.153299 +0200,
./images_beh/Sphere_CCW-1.5_BG-grey_stim-yellow.png,0,258,258,258,259.65310241497355,,,,,,,,,,259.608111109992,259.6590187429683,259.6590187429683,260.4117406439618,260.40496319695376,260.6277552729589,['space'],0,0.46006090997252613,None,,,sub-sepehr,ses-control-base-z-2,run-1,grey,2024-04-25_11h57.42.888,VDT,2023.2.3,120.1687519830924,2024-04-25 11h57.58.153299 +0200,
./images_beh/Sphere_CCW-1.5_BG-grey_stim-white.png,0,259,259,259,260.6738314559916,,,,,,,,,,260.6285257479758,260.6738314559916,260.6738314559916,261.41205776599236,261.4210265609436,261.62213378498564,None,0,,,,,sub-sepehr,ses-control-base-z-2,run-1,grey,2024-04-25_11h57.42.888,VDT,2023.2.3,120.1687519830924,2024-04-25 11h57.58.153299 +0200,
./images_beh/Sphere_CCW-1.5_BG-grey_stim-white.png,0,260,260,260,261.66889731795527,,,,,,,,,,261.62303537799744,261.66889731795527,261.66889731795527,262.4105697289924,262.4105697289924,262.6284100149642,None,0,,,,,sub-sepehr,ses-control-base-z-2,run-1,grey,2024-04-25_11h57.42.888,VDT,2023.2.3,120.1687519830924,2024-04-25 11h57.58.153299 +0200,
./images_beh/Sphere_CCW-1.5_BG-grey_stim-white.png,0,261,261,261,262.676689238986,,,,,,,,,,262.6291262029554,262.676689238986,262.676689238986,263.41210515995044,263.42003383795964,263.6928438569885,None,0,,,263.6704898259486,263.67595571494894,sub-sepehr,ses-control-base-z-2,run-1,grey,2024-04-25_11h57.42.888,VDT,2023.2.3,120.1687519830924,2024-04-25 11h57.58.153299 +0200,
./images_beh/Sphere_CW-1.5_BG-grey_stim-yellow.png,0,262,262,262,263.738096446963,,,,,,,,,,263.6934277379769,263.738096446963,263.738096446963,264.409337008954,264.4866631109617,264.6227021679515,['space'],0,0.4773042199667543,None,,,sub-sepehr,ses-control-base-z-2,run-1,grey,2024-04-25_11h57.42.888,VDT,2023.2.3,120.1687519830924,2024-04-25 11h57.58.153299 +0200,
./images_beh/Sphere_CCW-1.5_BG-grey_stim-white.png,0,263,263,263,264.6710661010002,,,,,,,,,,264.623645346961,264.6710661010002,264.6710661010002,265.41016440995736,265.4212457589456,265.59399952198146,None,0,,,,,sub-sepehr,ses-control-base-z-2,run-1,grey,2024-04-25_11h57.42.888,VDT,2023.2.3,120.1687519830924,2024-04-25 11h57.58.153299 +0200,
./images_beh/Sphere_CW-1.5_BG-grey_stim-white.png,0,264,264,264,265.6401539289509,,,,,,,,,,265.594732225989,265.65804089495214,265.65804089495214,266.40973136998946,266.40223122399766,266.65315394097706,None,0,,,266.6519301859662,266.6519301859662,sub-sepehr,ses-control-base-z-2,run-1,grey,2024-04-25_11h57.42.888,VDT,2023.2.3,120.1687519830924,2024-04-25 11h57.58.153299 +0200,
./images_beh/Sphere_Ref_BG-grey_stim-white.png,0,265,265,265,266.7024630139931,,,,,,,,,,266.6544470959925,266.7024630139931,266.7024630139931,267.40933659498114,267.4538106819964,267.5859832519782,None,0,,,,,sub-sepehr,ses-control-base-z-2,run-1,grey,2024-04-25_11h57.42.888,VDT,2023.2.3,120.1687519830924,2024-04-25 11h57.58.153299 +0200,
./images_beh/Sphere_Ref_BG-grey_stim-yellow.png,0,266,266,266,267.6325320889591,,,,,,,,,,267.58715520694386,267.6574599809828,267.6574599809828,268.41731811797945,268.40032296499703,268.6355154719786,['space'],0,0.5491664169821888,None,,,sub-sepehr,ses-control-base-z-2,run-1,grey,2024-04-25_11h57.42.888,VDT,2023.2.3,120.1687519830924,2024-04-25 11h57.58.153299 +0200,
./images_beh/Sphere_CW-1.5_BG-grey_stim-white.png,0,267,267,267,268.68708643497666,,,,,,,,,,268.63654180296,268.68708643497666,268.68708643497666,269.41717501200037,269.4333530529984,269.63444373599486,None,0,,,,,sub-sepehr,ses-control-base-z-2,run-1,grey,2024-04-25_11h57.42.888,VDT,2023.2.3,120.1687519830924,2024-04-25 11h57.58.153299 +0200,
./images_beh/Sphere_CW-1.5_BG-grey_stim-white.png,0,268,268,268,269.67930813797284,,,,,,,,,,269.635421999963,269.67930813797284,269.67930813797284,270.4164678599918,270.4235980779631,270.6175626119948,None,0,,,,,sub-sepehr,ses-control-base-z-2,run-1,grey,2024-04-25_11h57.42.888,VDT,2023.2.3,120.1687519830924,2024-04-25 11h57.58.153299 +0200,
./images_beh/Sphere_CW-1.5_BG-grey_stim-white.png,0,269,269,269,270.66384400997777,,,,,,,,,,270.6186594509636,270.6692565229605,270.6692565229605,271.41586847999133,271.41586847999133,271.6171506869723,None,0,,,,,sub-sepehr,ses-control-base-z-2,run-1,grey,2024-04-25_11h57.42.888,VDT,2023.2.3,120.1687519830924,2024-04-25 11h57.58.153299 +0200,
