image,trials.thisRepN,trials.thisTrialN,trials.thisN,trials.thisIndex,thisRow.t,notes,WaitingForScannerTrigger.started,Vertical.started,key_resp.started,WaitingForScannerTrigger.stopped,key_resp.keys,key_resp.corr,key_resp.rt,key_resp.duration,VDT.started,PresentedLine1.started,key_resp_2.started,FixDot2.started,PresentedLine1.stopped,VDT.stopped,key_resp_2.keys,key_resp_2.corr,key_resp_2.rt,key_resp_2.duration,FixDot2.stopped,key_resp_2.stopped,participant,session,run,BG_color,date,expName,psychopyVersion,frameRate,expStart,
,,,,,,,0.0054686049988958985,0.01735463601653464,0.01735463601653464,0.8102348420070484,s,0,0.7870771010057069,None,,,,,,,,,,,,,sub-SM,ses-2control,run-1,grey,2024-05-31_12h07.26.244,VDT,2023.2.3,123.7132186463194,2024-05-31 12h07.31.123494 +0200,
./images_eeg/Sphere_Ref_BG-grey_stim-white.png,0,0,0,0,0.8595347010123078,,,,,,,,,,0.8180211060098372,0.8595347010123078,0.8595347010123078,1.5578159629949369,1.6069860650168266,1.7914946780074388,None,0,,,,,sub-SM,ses-2control,run-1,grey,2024-05-31_12h07.26.244,VDT,2023.2.3,123.7132186463194,2024-05-31 12h07.31.123494 +0200,
./images_eeg/Sphere_CCW-2.25_BG-grey_stim-white.png,0,1,1,1,1.842861545010237,,,,,,,,,,1.7924709790095221,1.842861545010237,1.842861545010237,2.5577010519918986,2.589587144990219,2.7572892880125437,None,0,,,,,sub-SM,ses-2control,run-1,grey,2024-05-31_12h07.26.244,VDT,2023.2.3,123.7132186463194,2024-05-31 12h07.31.123494 +0200,
./images_eeg/Sphere_CW-2.25_BG-grey_stim-yellow.png,0,2,2,2,2.79466007501469,,,,,,,,,,2.7577744250011165,2.815646341012325,2.815646341012325,3.555943172017578,3.555943172017578,3.7565154950134456,['space'],0,0.5187444089970086,None,,,sub-SM,ses-2control,run-1,grey,2024-05-31_12h07.26.244,VDT,2023.2.3,123.7132186463194,2024-05-31 12h07.31.123494 +0200,
./images_eeg/Sphere_CW-2.25_BG-grey_stim-white.png,0,3,3,3,3.797737265995238,,,,,,,,,,3.7574995280010626,3.8056379340123385,3.8056379340123385,4.557290908007417,4.549071126995841,4.757511975010857,None,0,,,,,sub-SM,ses-2control,run-1,grey,2024-05-31_12h07.26.244,VDT,2023.2.3,123.7132186463194,2024-05-31 12h07.31.123494 +0200,
./images_eeg/Sphere_CCW-2.25_BG-grey_stim-white.png,0,4,4,4,4.798889638012042,,,,,,,,,,4.7580694729986135,4.806992066005478,4.806992066005478,5.556200886989245,5.548715960001573,5.799493074999191,None,0,,,5.79856654399191,5.79856654399191,sub-SM,ses-2control,run-1,grey,2024-05-31_12h07.26.244,VDT,2023.2.3,123.7132186463194,2024-05-31 12h07.31.123494 +0200,
./images_eeg/Sphere_Ref_BG-grey_stim-yellow.png,0,5,5,5,5.849778033996699,,,,,,,,,,5.8000525849929545,5.849778033996699,5.849778033996699,6.557865234994097,6.607264890015358,6.740445978997741,['space'],0,0.3924612090049777,None,,,sub-SM,ses-2control,run-1,grey,2024-05-31_12h07.26.244,VDT,2023.2.3,123.7132186463194,2024-05-31 12h07.31.123494 +0200,
./images_eeg/Sphere_Ref_BG-grey_stim-white.png,0,6,6,6,6.79230122899753,,,,,,,,,,6.74144838299253,6.805905806017108,6.805905806017108,7.555932143004611,7.548224158002995,7.722694191004848,None,0,,,,,sub-SM,ses-2control,run-1,grey,2024-05-31_12h07.26.244,VDT,2023.2.3,123.7132186463194,2024-05-31 12h07.31.123494 +0200,
./images_eeg/Sphere_CCW-2.25_BG-grey_stim-white.png,0,7,7,7,7.764230480999686,,,,,,,,,,7.723275666998234,7.804936378990533,7.804936378990533,8.555423123994842,8.547802854009205,8.756006339011947,None,0,,,,,sub-SM,ses-2control,run-1,grey,2024-05-31_12h07.26.244,VDT,2023.2.3,123.7132186463194,2024-05-31 12h07.31.123494 +0200,
./images_eeg/Sphere_CW-2.25_BG-grey_stim-white.png,0,8,8,8,8.803990209999029,,,,,,,,,,8.756747961015208,8.814188274001935,8.814188274001935,9.554593929002294,9.554593929002294,9.788267747004284,None,0,,,,,sub-SM,ses-2control,run-1,grey,2024-05-31_12h07.26.244,VDT,2023.2.3,123.7132186463194,2024-05-31 12h07.31.123494 +0200,
./images_eeg/Sphere_Ref_BG-grey_stim-yellow.png,0,9,9,9,9.83118149600341,,,,,,,,,,9.788723484001821,9.83118149600341,9.83118149600341,10.55587680300232,10.571802710008342,10.731021963001695,['space'],0,0.41765939598553814,None,,,sub-SM,ses-2control,run-1,grey,2024-05-31_12h07.26.244,VDT,2023.2.3,123.7132186463194,2024-05-31 12h07.31.123494 +0200,
./images_eeg/Sphere_CW-2.25_BG-grey_stim-white.png,0,10,10,10,10.772229413007153,,,,,,,,,,10.73199428600492,10.80354678799631,10.80354678799631,11.554352720006136,11.54690761299571,11.730818653013557,None,0,,,,,sub-SM,ses-2control,run-1,grey,2024-05-31_12h07.26.244,VDT,2023.2.3,123.7132186463194,2024-05-31 12h07.31.123494 +0200,
./images_eeg/Sphere_CW-2.25_BG-grey_stim-white.png,0,11,11,11,11.773237087007146,,,,,,,,,,11.731580076011596,11.80331492901314,11.80331492901314,12.554346521996194,12.546674481010996,12.753973818005761,None,0,,,,,sub-SM,ses-2control,run-1,grey,2024-05-31_12h07.26.244,VDT,2023.2.3,123.7132186463194,2024-05-31 12h07.31.123494 +0200,
./images_eeg/Sphere_CCW-2.25_BG-grey_stim-white.png,0,12,12,12,12.794492406013887,,,,,,,,,,12.754452355002286,12.803331392002292,12.803331392002292,13.5546089860145,13.546473536989652,13.770167729002424,None,0,,,,,sub-SM,ses-2control,run-1,grey,2024-05-31_12h07.26.244,VDT,2023.2.3,123.7132186463194,2024-05-31 12h07.31.123494 +0200,
./images_eeg/Sphere_CCW-2.25_BG-grey_stim-white.png,0,13,13,13,13.811275354004465,,,,,,,,,,13.770616644993424,13.811275354004465,13.811275354004465,14.553677855001297,14.553677855001297,14.786678158008726,None,0,,,,,sub-SM,ses-2control,run-1,grey,2024-05-31_12h07.26.244,VDT,2023.2.3,123.7132186463194,2024-05-31 12h07.31.123494 +0200,
./images_eeg/Sphere_CCW-2.25_BG-grey_stim-yellow.png,0,14,14,14,14.831682630989235,,,,,,,,,,14.78714568799478,14.831682630989235,14.831682630989235,15.554543203004869,15.57890051099821,15.779210034001153,['space'],0,0.4949937440105714,None,,,sub-SM,ses-2control,run-1,grey,2024-05-31_12h07.26.244,VDT,2023.2.3,123.7132186463194,2024-05-31 12h07.31.123494 +0200,
./images_eeg/Sphere_CW-2.25_BG-grey_stim-white.png,0,15,15,15,15.823832451016642,,,,,,,,,,15.780162589013344,15.823832451016642,15.823832451016642,16.55394173800596,16.569724586996017,16.729348152992316,None,0,,,,,sub-SM,ses-2control,run-1,grey,2024-05-31_12h07.26.244,VDT,2023.2.3,123.7132186463194,2024-05-31 12h07.31.123494 +0200,
./images_eeg/Sphere_CW-2.25_BG-grey_stim-white.png,0,16,16,16,16.769645552994916,,,,,,,,,,16.729932795016794,16.801602235995233,16.801602235995233,17.55305271499674,17.54527943400899,17.800665943999775,None,0,,,17.799972664011875,17.79465772601543,sub-SM,ses-2control,run-1,grey,2024-05-31_12h07.26.244,VDT,2023.2.3,123.7132186463194,2024-05-31 12h07.31.123494 +0200,
./images_eeg/Sphere_CCW-2.25_BG-grey_stim-white.png,0,17,17,17,17.843203037016792,,,,,,,,,,17.80112873899634,17.843203037016792,17.843203037016792,18.55325739001273,18.586673229001462,18.745704967004713,None,0,,,,,sub-SM,ses-2control,run-1,grey,2024-05-31_12h07.26.244,VDT,2023.2.3,123.7132186463194,2024-05-31 12h07.31.123494 +0200,
