image,trials.thisRepN,trials.thisTrialN,trials.thisN,trials.thisIndex,thisRow.t,notes,WaitingForScannerTrigger.started,Vertical.started,key_resp.started,WaitingForScannerTrigger.stopped,key_resp.keys,key_resp.corr,key_resp.rt,key_resp.duration,VDT.started,PresentedLine1.started,key_resp_2.started,FixDot2.started,PresentedLine1.stopped,VDT.stopped,key_resp_2.keys,key_resp_2.corr,key_resp_2.rt,key_resp_2.duration,key_resp_2.stopped,FixDot2.stopped,participant,session,run,BG_color,date,expName,psychopyVersion,frameRate,expStart,
,,,,,,,0.004755592031870037,0.011317310039885342,0.011317310039885342,3.2615168030024506,s,0,3.2413343870430253,None,,,,,,,,,,,,,sub-003,ses-main-base-z-1,run-1,grey,2024-04-25_13h42.27.549,VDT,2023.2.3,120.76449775602003,2024-04-25 13h42.48.458407 +0200,
./images_beh/Sphere_CCW-1.5_BG-grey_stim-white.png,0,0,0,0,3.321256159048062,,,,,,,,,,3.2871371790533885,3.321256159048062,3.321256159048062,4.008534693042748,4.065354914055206,4.232539415010251,None,0,,,,,sub-003,ses-main-base-z-1,run-1,grey,2024-04-25_13h42.27.549,VDT,2023.2.3,120.76449775602003,2024-04-25 13h42.48.458407 +0200,
./images_beh/Sphere_CW-1.5_BG-grey_stim-white.png,0,1,1,1,4.28152585204225,,,,,,,,,,4.234983960050158,4.28152585204225,4.28152585204225,5.008299737004563,5.024936852045357,5.229509376047645,None,0,,,,,sub-003,ses-main-base-z-1,run-1,grey,2024-04-25_13h42.27.549,VDT,2023.2.3,120.76449775602003,2024-04-25 13h42.48.458407 +0200,
./images_beh/Sphere_Ref_BG-grey_stim-white.png,0,2,2,2,5.2652331230347045,,,,,,,,,,5.22981150803389,5.2652331230347045,5.2652331230347045,6.007930965046398,6.01462089800043,6.192172782029957,['space'],0,0.5157577979844064,None,,,sub-003,ses-main-base-z-1,run-1,grey,2024-04-25_13h42.27.549,VDT,2023.2.3,120.76449775602003,2024-04-25 13h42.48.458407 +0200,
./images_beh/Sphere_CCW-1.5_BG-grey_stim-white.png,0,3,3,3,6.238264981016982,,,,,,,,,,6.1935556110111065,6.262922887050081,6.262922887050081,7.0072123690042645,7.0072123690042645,7.214679389027879,None,0,,,,,sub-003,ses-main-base-z-1,run-1,grey,2024-04-25_13h42.27.549,VDT,2023.2.3,120.76449775602003,2024-04-25 13h42.48.458407 +0200,
./images_beh/Sphere_CW-1.5_BG-grey_stim-white.png,0,4,4,4,7.264576870016754,,,,,,,,,,7.215434508048929,7.264576870016754,7.264576870016754,8.00683091999963,8.00683091999963,8.224589246034157,None,0,,,,,sub-003,ses-main-base-z-1,run-1,grey,2024-04-25_13h42.27.549,VDT,2023.2.3,120.76449775602003,2024-04-25 13h42.48.458407 +0200,
./images_beh/Sphere_CW-1.5_BG-grey_stim-white.png,0,5,5,5,8.272841853031423,,,,,,,,,,8.225404708005954,8.272841853031423,8.272841853031423,9.006378930003848,9.013353528047446,9.2241126090521,None,0,,,,,sub-003,ses-main-base-z-1,run-1,grey,2024-04-25_13h42.27.549,VDT,2023.2.3,120.76449775602003,2024-04-25 13h42.48.458407 +0200,
./images_beh/Sphere_CCW-1.5_BG-grey_stim-white.png,0,6,6,6,9.273351559997536,,,,,,,,,,9.224902333051432,9.273351559997536,9.273351559997536,10.00572427205043,10.012428671005182,10.17329675302608,None,0,,,,,sub-003,ses-main-base-z-1,run-1,grey,2024-04-25_13h42.27.549,VDT,2023.2.3,120.76449775602003,2024-04-25 13h42.48.458407 +0200,
./images_beh/Sphere_Ref_BG-grey_stim-white.png,0,7,7,7,10.219471846008673,,,,,,,,,,10.174195789033547,10.261622912017629,10.261622912017629,11.004967493005097,11.004967493005097,11.189248298003804,['space'],0,0.4961900069611147,None,,,sub-003,ses-main-base-z-1,run-1,grey,2024-04-25_13h42.27.549,VDT,2023.2.3,120.76449775602003,2024-04-25 13h42.48.458407 +0200,
./images_beh/Sphere_CCW-1.5_BG-grey_stim-white.png,0,8,8,8,11.23436397704063,,,,,,,,,,11.190209461026825,11.261740276997443,11.261740276997443,12.004509092017543,12.004509092017543,12.195068740053102,None,0,,,,,sub-003,ses-main-base-z-1,run-1,grey,2024-04-25_13h42.27.549,VDT,2023.2.3,120.76449775602003,2024-04-25 13h42.48.458407 +0200,
./images_beh/Sphere_CCW-1.5_BG-grey_stim-white.png,0,9,9,9,12.23997611203231,,,,,,,,,,12.195823863032274,12.259731395053677,12.259731395053677,13.010193998052273,13.003879465046339,13.194327226025052,None,0,,,,,sub-003,ses-main-base-z-1,run-1,grey,2024-04-25_13h42.27.549,VDT,2023.2.3,120.76449775602003,2024-04-25 13h42.48.458407 +0200,
./images_beh/Sphere_Ref_BG-grey_stim-white.png,0,10,10,10,13.242662993026897,,,,,,,,,,13.195097774034366,13.259862714039627,13.259862714039627,14.009328971034847,14.003468798007816,14.227338471042458,['space'],0,0.4723727499949746,None,,,sub-003,ses-main-base-z-1,run-1,grey,2024-04-25_13h42.27.549,VDT,2023.2.3,120.76449775602003,2024-04-25 13h42.48.458407 +0200,
./images_beh/Sphere_CW-1.5_BG-grey_stim-white.png,0,11,11,11,14.27341648901347,,,,,,,,,,14.22835730802035,14.27341648901347,14.27341648901347,15.011008193017915,15.019504900032189,15.242333694011904,None,0,,,,,sub-003,ses-main-base-z-1,run-1,grey,2024-04-25_13h42.27.549,VDT,2023.2.3,120.76449775602003,2024-04-25 13h42.48.458407 +0200,
./images_beh/Sphere_CW-1.5_BG-grey_stim-white.png,0,12,12,12,15.28376618103357,,,,,,,,,,15.242783423047513,15.28376618103357,15.28376618103357,16.009409214020707,16.025007390009705,16.243441177997738,None,0,,,,,sub-003,ses-main-base-z-1,run-1,grey,2024-04-25_13h42.27.549,VDT,2023.2.3,120.76449775602003,2024-04-25 13h42.48.458407 +0200,
./images_beh/Sphere_CW-1.5_BG-grey_stim-white.png,0,13,13,13,16.290206232049968,,,,,,,,,,16.24417058401741,16.290206232049968,16.290206232049968,17.008346376009285,17.0352850210038,17.20770612603519,None,0,,,,,sub-003,ses-main-base-z-1,run-1,grey,2024-04-25_13h42.27.549,VDT,2023.2.3,120.76449775602003,2024-04-25 13h42.48.458407 +0200,
./images_beh/Sphere_Ref_BG-grey_stim-white.png,0,14,14,14,17.24861386802513,,,,,,,,,,17.208213177043945,17.268476370023564,17.268476370023564,18.008328035997692,18.008328035997692,18.185479314997792,['space'],0,0.46326356095960364,None,,,sub-003,ses-main-base-z-1,run-1,grey,2024-04-25_13h42.27.549,VDT,2023.2.3,120.76449775602003,2024-04-25 13h42.48.458407 +0200,
./images_beh/Sphere_CCW-1.5_BG-grey_stim-white.png,0,15,15,15,18.228524503007066,,,,,,,,,,18.18660134804668,18.25634386704769,18.25634386704769,19.00756525003817,19.00101856101537,19.168207205017097,None,0,,,,,sub-003,ses-main-base-z-1,run-1,grey,2024-04-25_13h42.27.549,VDT,2023.2.3,120.76449775602003,2024-04-25 13h42.48.458407 +0200,
./images_beh/Sphere_CCW-1.5_BG-grey_stim-white.png,0,16,16,16,19.21191860100953,,,,,,,,,,19.169191977009177,19.256343304004986,19.256343304004986,20.007358101021964,20.00047634902876,20.217995932034682,None,0,,,,,sub-003,ses-main-base-z-1,run-1,grey,2024-04-25_13h42.27.549,VDT,2023.2.3,120.76449775602003,2024-04-25 13h42.48.458407 +0200,
./images_beh/Sphere_CW-1.5_BG-grey_stim-white.png,0,17,17,17,20.266256624017842,,,,,,,,,,20.21897769201314,20.266256624017842,20.266256624017842,21.017134366033133,21.017134366033133,21.201377894030884,None,0,,,,,sub-003,ses-main-base-z-1,run-1,grey,2024-04-25_13h42.27.549,VDT,2023.2.3,120.76449775602003,2024-04-25 13h42.48.458407 +0200,
./images_beh/Sphere_CW-1.5_BG-grey_stim-white.png,0,18,18,18,21.246208466007374,,,,,,,,,,21.20213952002814,21.252008494047914,21.252008494047914,22.01894441404147,22.002582072047517,22.16726950503653,None,0,,,,,sub-003,ses-main-base-z-1,run-1,grey,2024-04-25_13h42.27.549,VDT,2023.2.3,120.76449775602003,2024-04-25 13h42.48.458407 +0200,
./images_beh/Sphere_CCW-1.5_BG-grey_stim-white.png,0,19,19,19,22.214703236997593,,,,,,,,,,22.168167744006496,22.256653438031208,22.256653438031208,23.00610153703019,22.99950906500453,23.250360497040674,None,0,,,,,sub-003,ses-main-base-z-1,run-1,grey,2024-04-25_13h42.27.549,VDT,2023.2.3,120.76449775602003,2024-04-25 13h42.48.458407 +0200,
./images_beh/Sphere_CW-1.5_BG-grey_stim-white.png,0,20,20,20,23.298203481012024,,,,,,,,,,23.251169576018583,23.298203481012024,23.298203481012024,24.006431195011828,24.038372010050807,24.23338168702321,None,0,,,,,sub-003,ses-main-base-z-1,run-1,grey,2024-04-25_13h42.27.549,VDT,2023.2.3,120.76449775602003,2024-04-25 13h42.48.458407 +0200,
./images_beh/Sphere_Ref_BG-grey_stim-white.png,0,21,21,21,24.28303395601688,,,,,,,,,,24.23419891000958,24.28303395601688,24.28303395601688,25.006085196044296,25.03128709900193,25.19938893604558,None,0,,,,,sub-003,ses-main-base-z-1,run-1,grey,2024-04-25_13h42.27.549,VDT,2023.2.3,120.76449775602003,2024-04-25 13h42.48.458407 +0200,
./images_beh/Sphere_CW-1.5_BG-grey_stim-white.png,0,22,22,22,25.24919162201695,,,,,,,,,,25.20013412402477,25.26383909303695,25.26383909303695,26.003998885047622,26.003998885047622,26.232284154044464,None,0,,,,,sub-003,ses-main-base-z-1,run-1,grey,2024-04-25_13h42.27.549,VDT,2023.2.3,120.76449775602003,2024-04-25 13h42.48.458407 +0200,
./images_beh/Sphere_CW-1.5_BG-grey_stim-white.png,0,23,23,23,26.27929396199761,,,,,,,,,,26.23302921099821,26.27929396199761,26.27929396199761,27.0053322140011,27.020652207022067,27.21769432304427,None,0,,,,,sub-003,ses-main-base-z-1,run-1,grey,2024-04-25_13h42.27.549,VDT,2023.2.3,120.76449775602003,2024-04-25 13h42.48.458407 +0200,
./images_beh/Sphere_CW-1.5_BG-grey_stim-white.png,0,24,24,24,27.266189754998777,,,,,,,,,,27.218437474046368,27.266189754998777,27.266189754998777,28.005043369019404,28.01307624403853,28.180604304012377,None,0,,,,,sub-003,ses-main-base-z-1,run-1,grey,2024-04-25_13h42.27.549,VDT,2023.2.3,120.76449775602003,2024-04-25 13h42.48.458407 +0200,
./images_beh/Sphere_Ref_BG-grey_stim-white.png,0,25,25,25,28.227516403014306,,,,,,,,,,28.18164049804909,28.25106900202809,28.25106900202809,29.00306752603501,28.995806226041168,29.232719892053865,['space'],0,0.5860654709977098,None,,,sub-003,ses-main-base-z-1,run-1,grey,2024-04-25_13h42.27.549,VDT,2023.2.3,120.76449775602003,2024-04-25 13h42.48.458407 +0200,
./images_beh/Sphere_CCW-1.5_BG-grey_stim-white.png,0,26,26,26,29.281410612049513,,,,,,,,,,29.233677064010408,29.281410612049513,29.281410612049513,30.015378639043774,30.032353274000343,30.196766458044294,None,0,,,,,sub-003,ses-main-base-z-1,run-1,grey,2024-04-25_13h42.27.549,VDT,2023.2.3,120.76449775602003,2024-04-25 13h42.48.458407 +0200,
./images_beh/Sphere_CW-1.5_BG-grey_stim-white.png,0,27,27,27,30.24392404803075,,,,,,,,,,30.197717747010756,30.249765826039948,30.249765826039948,31.014927622047253,31.014927622047253,31.262908065051306,None,0,,,31.245142414001748,31.261491875047795,sub-003,ses-main-base-z-1,run-1,grey,2024-04-25_13h42.27.549,VDT,2023.2.3,120.76449775602003,2024-04-25 13h42.48.458407 +0200,
./images_beh/Sphere_Ref_BG-grey_stim-white.png,0,28,28,28,31.31207839702256,,,,,,,,,,31.263666328042746,31.31207839702256,31.31207839702256,32.004285705043,32.06106721801916,32.186188052000944,['space'],0,0.6529226850252599,None,,,sub-003,ses-main-base-z-1,run-1,grey,2024-04-25_13h42.27.549,VDT,2023.2.3,120.76449775602003,2024-04-25 13h42.48.458407 +0200,
./images_beh/Sphere_CCW-1.5_BG-grey_stim-white.png,0,29,29,29,32.23369428503793,,,,,,,,,,32.18717179703526,32.261083616002,32.261083616002,33.00117299403064,33.00117299403064,33.24527165200561,None,0,,,,33.24403721804265,sub-003,ses-main-base-z-1,run-1,grey,2024-04-25_13h42.27.549,VDT,2023.2.3,120.76449775602003,2024-04-25 13h42.48.458407 +0200,
./images_beh/Sphere_CCW-1.5_BG-grey_stim-white.png,0,30,30,30,33.29486020602053,,,,,,,,,,33.24605129403062,33.29486020602053,33.29486020602053,34.01035597000737,34.043346632039174,34.211634927021805,None,0,,,,,sub-003,ses-main-base-z-1,run-1,grey,2024-04-25_13h42.27.549,VDT,2023.2.3,120.76449775602003,2024-04-25 13h42.48.458407 +0200,
./images_beh/Sphere_Ref_BG-grey_stim-white.png,0,31,31,31,34.260496529052034,,,,,,,,,,34.21273175504757,34.27635053405538,34.27635053405538,35.0095123090432,35.015440575021785,35.265584045031574,['space'],0,0.624378539971076,None,35.264822331024334,35.24797046504682,sub-003,ses-main-base-z-1,run-1,grey,2024-04-25_13h42.27.549,VDT,2023.2.3,120.76449775602003,2024-04-25 13h42.48.458407 +0200,
./images_beh/Sphere_CW-1.5_BG-grey_stim-white.png,0,32,32,32,35.31254385801731,,,,,,,,,,35.26653351500863,35.31254385801731,35.31254385801731,36.00929946103133,36.05890940804966,36.19361294200644,None,0,,,,,sub-003,ses-main-base-z-1,run-1,grey,2024-04-25_13h42.27.549,VDT,2023.2.3,120.76449775602003,2024-04-25 13h42.48.458407 +0200,
./images_beh/Sphere_CCW-1.5_BG-grey_stim-white.png,0,33,33,33,36.24181507300818,,,,,,,,,,36.194620183028746,36.25845375302015,36.25845375302015,37.00881297903834,36.99780308903428,37.197983579011634,None,0,,,,,sub-003,ses-main-base-z-1,run-1,grey,2024-04-25_13h42.27.549,VDT,2023.2.3,120.76449775602003,2024-04-25 13h42.48.458407 +0200,
./images_beh/Sphere_CCW-1.5_BG-grey_stim-white.png,0,34,34,34,37.23901697900146,,,,,,,,,,37.19874229602283,37.26438263000455,37.26438263000455,38.00831006100634,38.00831006100634,38.21657649404369,None,0,,,,,sub-003,ses-main-base-z-1,run-1,grey,2024-04-25_13h42.27.549,VDT,2023.2.3,120.76449775602003,2024-04-25 13h42.48.458407 +0200,
./images_beh/Sphere_CCW-1.5_BG-grey_stim-white.png,0,35,35,35,38.26523363101296,,,,,,,,,,38.217394036997575,38.26523363101296,38.26523363101296,39.00762529700296,39.00762529700296,39.215360190020874,None,0,,,,,sub-003,ses-main-base-z-1,run-1,grey,2024-04-25_13h42.27.549,VDT,2023.2.3,120.76449775602003,2024-04-25 13h42.48.458407 +0200,
./images_beh/Sphere_CCW-1.5_BG-grey_stim-white.png,0,36,36,36,39.263971409003716,,,,,,,,,,39.21611659304472,39.263971409003716,39.263971409003716,40.00715463102097,40.00715463102097,40.24160103104077,None,0,,,,,sub-003,ses-main-base-z-1,run-1,grey,2024-04-25_13h42.27.549,VDT,2023.2.3,120.76449775602003,2024-04-25 13h42.48.458407 +0200,
./images_beh/Sphere_CCW-1.5_BG-grey_stim-white.png,0,37,37,37,40.28930974000832,,,,,,,,,,40.24237053701654,40.28930974000832,40.28930974000832,41.02359401003923,41.03120270301588,41.212690273008775,None,0,,,,,sub-003,ses-main-base-z-1,run-1,grey,2024-04-25_13h42.27.549,VDT,2023.2.3,120.76449775602003,2024-04-25 13h42.48.458407 +0200,
./images_beh/Sphere_Ref_BG-grey_stim-white.png,0,38,38,38,41.25528318400029,,,,,,,,,,41.213299384049606,41.25528318400029,41.25528318400029,42.00577755103586,41.99483660905389,42.19037943001604,['space'],0,0.7497479610028677,None,,,sub-003,ses-main-base-z-1,run-1,grey,2024-04-25_13h42.27.549,VDT,2023.2.3,120.76449775602003,2024-04-25 13h42.48.458407 +0200,
./images_beh/Sphere_CW-1.5_BG-grey_stim-white.png,0,39,39,39,42.240082128031645,,,,,,,,,,42.191882454033475,42.26113380503375,42.26113380503375,43.007930068008136,43.007930068008136,43.18977843201719,None,0,,,,,sub-003,ses-main-base-z-1,run-1,grey,2024-04-25_13h42.27.549,VDT,2023.2.3,120.76449775602003,2024-04-25 13h42.48.458407 +0200,
./images_beh/Sphere_CW-1.5_BG-grey_stim-white.png,0,40,40,40,43.23712745803641,,,,,,,,,,43.19087043503532,43.2606665250496,43.2606665250496,44.012773254013155,44.012773254013155,44.229377464042045,None,0,,,,,sub-003,ses-main-base-z-1,run-1,grey,2024-04-25_13h42.27.549,VDT,2023.2.3,120.76449775602003,2024-04-25 13h42.48.458407 +0200,
./images_beh/Sphere_CCW-1.5_BG-grey_stim-white.png,0,41,41,41,44.27528964402154,,,,,,,,,,44.22997998300707,44.27528964402154,44.27528964402154,45.004692980030086,45.020915987028275,45.22707216802519,None,0,,,,,sub-003,ses-main-base-z-1,run-1,grey,2024-04-25_13h42.27.549,VDT,2023.2.3,120.76449775602003,2024-04-25 13h42.48.458407 +0200,
./images_beh/Sphere_CW-1.5_BG-grey_stim-white.png,0,42,42,42,45.26871309801936,,,,,,,,,,45.227568337053526,45.26871309801936,45.26871309801936,46.011165037052706,46.011165037052706,46.23833750601625,None,0,,,,,sub-003,ses-main-base-z-1,run-1,grey,2024-04-25_13h42.27.549,VDT,2023.2.3,120.76449775602003,2024-04-25 13h42.48.458407 +0200,
./images_beh/Sphere_Ref_BG-grey_stim-white.png,0,43,43,43,46.28687022201484,,,,,,,,,,46.23918020899873,46.28687022201484,46.28687022201484,47.01019412005553,47.02605374902487,47.25463826401392,['space'],0,0.5346748859738,None,,47.25346780201653,sub-003,ses-main-base-z-1,run-1,grey,2024-04-25_13h42.27.549,VDT,2023.2.3,120.76449775602003,2024-04-25 13h42.48.458407 +0200,
./images_beh/Sphere_CW-1.5_BG-grey_stim-white.png,0,44,44,44,47.30277128802845,,,,,,,,,,47.25566325400723,47.30277128802845,47.30277128802845,48.010869432997424,48.042365636036266,48.209872253006324,None,0,,,,,sub-003,ses-main-base-z-1,run-1,grey,2024-04-25_13h42.27.549,VDT,2023.2.3,120.76449775602003,2024-04-25 13h42.48.458407 +0200,
./images_beh/Sphere_CW-1.5_BG-grey_stim-white.png,0,45,45,45,48.25555185804842,,,,,,,,,,48.210555232013576,48.26928038103506,48.26928038103506,49.00876706303097,49.00876706303097,49.219866480038036,None,0,,,,,sub-003,ses-main-base-z-1,run-1,grey,2024-04-25_13h42.27.549,VDT,2023.2.3,120.76449775602003,2024-04-25 13h42.48.458407 +0200,
./images_beh/Sphere_CW-1.5_BG-grey_stim-white.png,0,46,46,46,49.27065603103256,,,,,,,,,,49.22090409800876,49.27065603103256,49.27065603103256,50.00912782305386,50.01839788403595,50.24186399905011,None,0,,,,,sub-003,ses-main-base-z-1,run-1,grey,2024-04-25_13h42.27.549,VDT,2023.2.3,120.76449775602003,2024-04-25 13h42.48.458407 +0200,
./images_beh/Sphere_CCW-1.5_BG-grey_stim-white.png,0,47,47,47,50.28571190603543,,,,,,,,,,50.24246347200824,50.28571190603543,50.28571190603543,51.008532769046724,51.03460712201195,51.22606542601716,None,0,,,,,sub-003,ses-main-base-z-1,run-1,grey,2024-04-25_13h42.27.549,VDT,2023.2.3,120.76449775602003,2024-04-25 13h42.48.458407 +0200,
./images_beh/Sphere_Ref_BG-grey_stim-white.png,0,48,48,48,51.27054266905179,,,,,,,,,,51.226653938007075,51.27054266905179,51.27054266905179,52.00788769405335,52.0175571560394,52.191214972001035,['space'],0,0.4780400419840589,None,,,sub-003,ses-main-base-z-1,run-1,grey,2024-04-25_13h42.27.549,VDT,2023.2.3,120.76449775602003,2024-04-25 13h42.48.458407 +0200,
./images_beh/Sphere_CW-1.5_BG-grey_stim-white.png,0,49,49,49,52.233739881019574,,,,,,,,,,52.19198724202579,52.25641421700129,52.25641421700129,53.006227702018805,53.00010680302512,53.234235821000766,None,0,,,,,sub-003,ses-main-base-z-1,run-1,grey,2024-04-25_13h42.27.549,VDT,2023.2.3,120.76449775602003,2024-04-25 13h42.48.458407 +0200,
./images_beh/Sphere_CCW-1.5_BG-grey_stim-white.png,0,50,50,50,53.278947875020094,,,,,,,,,,53.23518669104669,53.278947875020094,53.278947875020094,54.0074916590238,54.03304383903742,54.1703787590377,None,0,,,,,sub-003,ses-main-base-z-1,run-1,grey,2024-04-25_13h42.27.549,VDT,2023.2.3,120.76449775602003,2024-04-25 13h42.48.458407 +0200,
./images_beh/Sphere_Ref_BG-grey_stim-white.png,0,51,51,51,54.21992160502123,,,,,,,,,,54.171116049052216,54.269441862998065,54.269441862998065,55.008030012017116,55.01717644400196,55.2193440120318,None,0,,,,,sub-003,ses-main-base-z-1,run-1,grey,2024-04-25_13h42.27.549,VDT,2023.2.3,120.76449775602003,2024-04-25 13h42.48.458407 +0200,
./images_beh/Sphere_CCW-1.5_BG-grey_stim-white.png,0,52,52,52,55.26523618103238,,,,,,,,,,55.220097051002085,55.26523618103238,55.26523618103238,56.005918253038544,56.005918253038544,56.24953854002524,None,0,,,,56.24861431005411,sub-003,ses-main-base-z-1,run-1,grey,2024-04-25_13h42.27.549,VDT,2023.2.3,120.76449775602003,2024-04-25 13h42.48.458407 +0200,
./images_beh/Sphere_CCW-1.5_BG-grey_stim-white.png,0,53,53,53,56.295968914055265,,,,,,,,,,56.25058794603683,56.295968914055265,56.295968914055265,57.017786897020414,57.03948145604227,57.24070103303529,None,0,,,,,sub-003,ses-main-base-z-1,run-1,grey,2024-04-25_13h42.27.549,VDT,2023.2.3,120.76449775602003,2024-04-25 13h42.48.458407 +0200,
./images_beh/Sphere_CCW-1.5_BG-grey_stim-white.png,0,54,54,54,57.29158838203875,,,,,,,,,,57.2418219250394,57.29158838203875,57.29158838203875,58.00660704803886,58.03784139803611,58.22257750801509,None,0,,,,,sub-003,ses-main-base-z-1,run-1,grey,2024-04-25_13h42.27.549,VDT,2023.2.3,120.76449775602003,2024-04-25 13h42.48.458407 +0200,
./images_beh/Sphere_CCW-1.5_BG-grey_stim-white.png,0,55,55,55,58.27005855902098,,,,,,,,,,58.22332690603798,58.27005855902098,58.27005855902098,59.00464839104097,59.01384670805419,59.217986149014905,None,0,,,,,sub-003,ses-main-base-z-1,run-1,grey,2024-04-25_13h42.27.549,VDT,2023.2.3,120.76449775602003,2024-04-25 13h42.48.458407 +0200,
./images_beh/Sphere_CW-1.5_BG-grey_stim-white.png,0,56,56,56,59.26683221803978,,,,,,,,,,59.2187233150471,59.26683221803978,59.26683221803978,60.00485066801775,60.01347063301364,60.25403448101133,None,0,,,,60.2468386090477,sub-003,ses-main-base-z-1,run-1,grey,2024-04-25_13h42.27.549,VDT,2023.2.3,120.76449775602003,2024-04-25 13h42.48.458407 +0200,
./images_beh/Sphere_CCW-1.5_BG-grey_stim-white.png,0,57,57,57,60.30171815905487,,,,,,,,,,60.254769449005835,60.30171815905487,60.30171815905487,61.00383760704426,61.046227503044065,61.220837758039124,None,0,,,,,sub-003,ses-main-base-z-1,run-1,grey,2024-04-25_13h42.27.549,VDT,2023.2.3,120.76449775602003,2024-04-25 13h42.48.458407 +0200,
./images_beh/Sphere_Ref_BG-grey_stim-white.png,0,58,58,58,61.27020398603054,,,,,,,,,,61.22188406001078,61.27020398603054,61.27020398603054,62.00317762803752,62.015539343003184,62.21328046702547,['space'],0,0.4867096570087597,None,,,sub-003,ses-main-base-z-1,run-1,grey,2024-04-25_13h42.27.549,VDT,2023.2.3,120.76449775602003,2024-04-25 13h42.48.458407 +0200,
./images_beh/Sphere_CCW-1.5_BG-grey_stim-white.png,0,59,59,59,62.26147711800877,,,,,,,,,,62.2149205780006,62.26147711800877,62.26147711800877,63.01198305503931,63.01198305503931,63.203246894001495,None,0,,,,,sub-003,ses-main-base-z-1,run-1,grey,2024-04-25_13h42.27.549,VDT,2023.2.3,120.76449775602003,2024-04-25 13h42.48.458407 +0200,
./images_beh/Sphere_CW-1.5_BG-grey_stim-white.png,0,60,60,60,63.246659109019674,,,,,,,,,,63.20384271105286,63.26163338404149,63.26163338404149,64.00266397104133,64.00266397104133,64.23595782701159,None,0,,,,,sub-003,ses-main-base-z-1,run-1,grey,2024-04-25_13h42.27.549,VDT,2023.2.3,120.76449775602003,2024-04-25 13h42.48.458407 +0200,
./images_beh/Sphere_Ref_BG-grey_stim-white.png,0,61,61,61,64.28528559400002,,,,,,,,,,64.23672725103097,64.28528559400002,64.28528559400002,65.00156877504196,65.02756106300512,65.2108679790399,['space'],0,0.5679642289760523,None,,,sub-003,ses-main-base-z-1,run-1,grey,2024-04-25_13h42.27.549,VDT,2023.2.3,120.76449775602003,2024-04-25 13h42.48.458407 +0200,
./images_beh/Sphere_CW-1.5_BG-grey_stim-white.png,0,62,62,62,65.25388975802343,,,,,,,,,,65.212372169015,65.26040648500202,65.26040648500202,66.00048460200196,66.00048460200196,66.178199262009,None,0,,,,,sub-003,ses-main-base-z-1,run-1,grey,2024-04-25_13h42.27.549,VDT,2023.2.3,120.76449775602003,2024-04-25 13h42.48.458407 +0200,
./images_beh/Sphere_CW-1.5_BG-grey_stim-white.png,0,63,63,63,66.22618194302777,,,,,,,,,,66.17924893205054,66.2500748730381,66.2500748730381,67.01238652301254,66.99322022299748,67.19476887100609,None,0,,,,,sub-003,ses-main-base-z-1,run-1,grey,2024-04-25_13h42.27.549,VDT,2023.2.3,120.76449775602003,2024-04-25 13h42.48.458407 +0200,
./images_beh/Sphere_CW-1.5_BG-grey_stim-white.png,0,64,64,64,67.24065387999872,,,,,,,,,,67.19589863804867,67.26724958303384,67.26724958303384,68.01245524804108,68.02865741803544,68.26098618999822,None,0,,,,68.25972683902364,sub-003,ses-main-base-z-1,run-1,grey,2024-04-25_13h42.27.549,VDT,2023.2.3,120.76449775602003,2024-04-25 13h42.48.458407 +0200,
./images_beh/Sphere_Ref_BG-grey_stim-white.png,0,65,65,65,68.31016963504953,,,,,,,,,,68.26177983102389,68.31016963504953,68.31016963504953,69.00825225800509,69.05819539004005,69.21739732800052,['space'],0,0.6387986210174859,None,,,sub-003,ses-main-base-z-1,run-1,grey,2024-04-25_13h42.27.549,VDT,2023.2.3,120.76449775602003,2024-04-25 13h42.48.458407 +0200,
./images_beh/Sphere_CCW-1.5_BG-grey_stim-white.png,0,66,66,66,69.26650485704886,,,,,,,,,,69.21838289202424,69.26650485704886,69.26650485704886,70.01092813600553,70.02768926799763,70.21519353904296,None,0,,,,,sub-003,ses-main-base-z-1,run-1,grey,2024-04-25_13h42.27.549,VDT,2023.2.3,120.76449775602003,2024-04-25 13h42.48.458407 +0200,
./images_beh/Sphere_CCW-1.5_BG-grey_stim-white.png,0,67,67,67,70.25747274700552,,,,,,,,,,70.21571386803407,70.25747274700552,70.25747274700552,71.01031047501601,70.99712526501389,71.22515459603164,None,0,,,,,sub-003,ses-main-base-z-1,run-1,grey,2024-04-25_13h42.27.549,VDT,2023.2.3,120.76449775602003,2024-04-25 13h42.48.458407 +0200,
./images_beh/Sphere_Ref_BG-grey_stim-white.png,0,68,68,68,71.26930153602734,,,,,,,,,,71.22620266902959,71.26930153602734,71.26930153602734,72.00714941701153,72.0130557390512,72.22754960303428,['space'],0,0.5659154599998146,None,,,sub-003,ses-main-base-z-1,run-1,grey,2024-04-25_13h42.27.549,VDT,2023.2.3,120.76449775602003,2024-04-25 13h42.48.458407 +0200,
./images_beh/Sphere_CCW-1.5_BG-grey_stim-white.png,0,69,69,69,72.27623337303521,,,,,,,,,,72.22849693900207,72.27623337303521,72.27623337303521,73.00704553502146,73.02626356302062,73.19136964704376,None,0,,,,,sub-003,ses-main-base-z-1,run-1,grey,2024-04-25_13h42.27.549,VDT,2023.2.3,120.76449775602003,2024-04-25 13h42.48.458407 +0200,
./images_beh/Sphere_CW-1.5_BG-grey_stim-white.png,0,70,70,70,73.23719419899862,,,,,,,,,,73.19363296602387,73.2632255150238,73.2632255150238,74.00655245501548,74.00655245501548,74.19844972301507,None,0,,,,,sub-003,ses-main-base-z-1,run-1,grey,2024-04-25_13h42.27.549,VDT,2023.2.3,120.76449775602003,2024-04-25 13h42.48.458407 +0200,
./images_beh/Sphere_CW-1.5_BG-grey_stim-white.png,0,71,71,71,74.24638269701973,,,,,,,,,,74.19929931400111,74.2564169530524,74.2564169530524,75.00612669700058,74.99551830801647,75.21474658604711,None,0,,,,,sub-003,ses-main-base-z-1,run-1,grey,2024-04-25_13h42.27.549,VDT,2023.2.3,120.76449775602003,2024-04-25 13h42.48.458407 +0200,
./images_beh/Sphere_CCW-1.5_BG-grey_stim-white.png,0,72,72,72,75.26410570502048,,,,,,,,,,75.21549255301943,75.26410570502048,75.26410570502048,76.00529312703293,76.01211694802623,76.2262293130043,None,0,,,,,sub-003,ses-main-base-z-1,run-1,grey,2024-04-25_13h42.27.549,VDT,2023.2.3,120.76449775602003,2024-04-25 13h42.48.458407 +0200,
./images_beh/Sphere_CW-1.5_BG-grey_stim-white.png,0,73,73,73,76.27350490202662,,,,,,,,,,76.226986802998,76.27350490202662,76.27350490202662,77.01055594801437,77.02104658004828,77.20478096901206,None,0,,,,,sub-003,ses-main-base-z-1,run-1,grey,2024-04-25_13h42.27.549,VDT,2023.2.3,120.76449775602003,2024-04-25 13h42.48.458407 +0200,
./images_beh/Sphere_CCW-1.5_BG-grey_stim-white.png,0,74,74,74,77.2379159660195,,,,,,,,,,77.2052011450287,77.25958519702544,77.25958519702544,78.00966281699948,78.00393940502545,78.17117622704245,None,0,,,,,sub-003,ses-main-base-z-1,run-1,grey,2024-04-25_13h42.27.549,VDT,2023.2.3,120.76449775602003,2024-04-25 13h42.48.458407 +0200,
./images_beh/Sphere_Ref_BG-grey_stim-white.png,0,75,75,75,78.20546904602088,,,,,,,,,,78.17175232100999,78.25938607903663,78.25938607903663,79.0089479200542,79.00345701701008,79.19259423104813,['space'],0,0.49716127500869334,None,,,sub-003,ses-main-base-z-1,run-1,grey,2024-04-25_13h42.27.549,VDT,2023.2.3,120.76449775602003,2024-04-25 13h42.48.458407 +0200,
./images_beh/Sphere_CW-1.5_BG-grey_stim-white.png,0,76,76,76,79.22617323102895,,,,,,,,,,79.19299543701345,79.25863937404938,79.25863937404938,80.008389953,80.00300446501933,80.16985518403817,None,0,,,,,sub-003,ses-main-base-z-1,run-1,grey,2024-04-25_13h42.27.549,VDT,2023.2.3,120.76449775602003,2024-04-25 13h42.48.458407 +0200,
./images_beh/Sphere_CCW-1.5_BG-grey_stim-white.png,0,77,77,77,80.20718183805002,,,,,,,,,,80.1703492650413,80.25798326701624,80.25798326701624,81.00883145304397,81.0025843839976,81.18724031804595,None,0,,,,,sub-003,ses-main-base-z-1,run-1,grey,2024-04-25_13h42.27.549,VDT,2023.2.3,120.76449775602003,2024-04-25 13h42.48.458407 +0200,
./images_beh/Sphere_Ref_BG-grey_stim-white.png,0,78,78,78,81.23401786305476,,,,,,,,,,81.18852486700052,81.25841659703292,81.25841659703292,82.00820665800711,82.00219169200864,82.20291401603026,None,0,,,,,sub-003,ses-main-base-z-1,run-1,grey,2024-04-25_13h42.27.549,VDT,2023.2.3,120.76449775602003,2024-04-25 13h42.48.458407 +0200,
./images_beh/Sphere_CCW-1.5_BG-grey_stim-white.png,0,79,79,79,82.24924834800186,,,,,,,,,,82.20430537103675,82.2686824320117,82.2686824320117,83.0088818850345,83.0088818850345,83.17619649000699,None,0,,,,,sub-003,ses-main-base-z-1,run-1,grey,2024-04-25_13h42.27.549,VDT,2023.2.3,120.76449775602003,2024-04-25 13h42.48.458407 +0200,
./images_beh/Sphere_CW-1.5_BG-grey_stim-white.png,0,80,80,80,83.22420278005302,,,,,,,,,,83.17692786100088,83.25775166304084,83.25775166304084,84.0072042720276,84.00112418201752,84.24185800401028,None,0,,,,,sub-003,ses-main-base-z-1,run-1,grey,2024-04-25_13h42.27.549,VDT,2023.2.3,120.76449775602003,2024-04-25 13h42.48.458407 +0200,
./images_beh/Sphere_CCW-1.5_BG-grey_stim-white.png,0,81,81,81,84.28672297601588,,,,,,,,,,84.24245280504692,84.28672297601588,84.28672297601588,85.00825901003554,85.034137906041,85.23568528803298,None,0,,,,,sub-003,ses-main-base-z-1,run-1,grey,2024-04-25_13h42.27.549,VDT,2023.2.3,120.76449775602003,2024-04-25 13h42.48.458407 +0200,
./images_beh/Sphere_Ref_BG-grey_stim-white.png,0,82,82,82,85.28284484602045,,,,,,,,,,85.2364881960093,85.28284484602045,85.28284484602045,86.00584083300782,86.02195224701427,86.20004996901844,['space'],0,0.36998003599001095,None,,,sub-003,ses-main-base-z-1,run-1,grey,2024-04-25_13h42.27.549,VDT,2023.2.3,120.76449775602003,2024-04-25 13h42.48.458407 +0200,
./images_beh/Sphere_CCW-1.5_BG-grey_stim-white.png,0,83,83,83,86.23323673004052,,,,,,,,,,86.20082274603192,86.25470588804455,86.25470588804455,87.0049397990224,86.99959636304993,87.221827107016,None,0,,,,,sub-003,ses-main-base-z-1,run-1,grey,2024-04-25_13h42.27.549,VDT,2023.2.3,120.76449775602003,2024-04-25 13h42.48.458407 +0200,
./images_beh/Sphere_CW-1.5_BG-grey_stim-white.png,0,84,84,84,87.25522744702175,,,,,,,,,,87.22212329204194,87.26547929202206,87.26547929202206,88.0069438420469,88.0069438420469,88.22132392501226,None,0,,,,,sub-003,ses-main-base-z-1,run-1,grey,2024-04-25_13h42.27.549,VDT,2023.2.3,120.76449775602003,2024-04-25 13h42.48.458407 +0200,
./images_beh/Sphere_CCW-1.5_BG-grey_stim-white.png,0,85,85,85,88.25427225005114,,,,,,,,,,88.22162346204277,88.26548151101451,88.26548151101451,89.00397448404692,89.00397448404692,89.25344515300822,None,0,,,89.25293239904568,89.24864584300667,sub-003,ses-main-base-z-1,run-1,grey,2024-04-25_13h42.27.549,VDT,2023.2.3,120.76449775602003,2024-04-25 13h42.48.458407 +0200,
./images_beh/Sphere_Ref_BG-grey_stim-white.png,0,86,86,86,89.28913057403406,,,,,,,,,,89.25379735301249,89.28913057403406,89.28913057403406,90.00406712904805,90.03625628404552,90.26485386304557,['space'],0,0.5153847219771706,None,,90.25198162504239,sub-003,ses-main-base-z-1,run-1,grey,2024-04-25_13h42.27.549,VDT,2023.2.3,120.76449775602003,2024-04-25 13h42.48.458407 +0200,
./images_beh/Sphere_CW-1.5_BG-grey_stim-white.png,0,87,87,87,90.29711411404423,,,,,,,,,,90.26575198100181,90.29711411404423,90.29711411404423,91.0173191910144,91.03717316500843,91.23459077702137,None,0,,,,,sub-003,ses-main-base-z-1,run-1,grey,2024-04-25_13h42.27.549,VDT,2023.2.3,120.76449775602003,2024-04-25 13h42.48.458407 +0200,
./images_beh/Sphere_CW-1.5_BG-grey_stim-white.png,0,88,88,88,91.28394446102902,,,,,,,,,,91.23534460604424,91.28394446102902,91.28394446102902,92.00534998404328,92.03116977703758,92.23189352103509,None,0,,,,,sub-003,ses-main-base-z-1,run-1,grey,2024-04-25_13h42.27.549,VDT,2023.2.3,120.76449775602003,2024-04-25 13h42.48.458407 +0200,
./images_beh/Sphere_CW-1.5_BG-grey_stim-white.png,0,89,89,89,92.27964536903892,,,,,,,,,,92.2330964380526,92.27964536903892,92.27964536903892,93.00437914702343,93.02099533501314,93.19802594801877,None,0,,,,,sub-003,ses-main-base-z-1,run-1,grey,2024-04-25_13h42.27.549,VDT,2023.2.3,120.76449775602003,2024-04-25 13h42.48.458407 +0200,
./images_beh/Sphere_CW-1.5_BG-grey_stim-white.png,0,90,90,90,93.24287268100306,,,,,,,,,,93.19881110003917,93.25245173403528,93.25245173403528,94.00302767200628,93.99633411201648,94.1978729510447,None,0,,,,,sub-003,ses-main-base-z-1,run-1,grey,2024-04-25_13h42.27.549,VDT,2023.2.3,120.76449775602003,2024-04-25 13h42.48.458407 +0200,
./images_beh/Sphere_CW-1.5_BG-grey_stim-white.png,0,91,91,91,94.24344791600015,,,,,,,,,,94.19877730699955,94.26923529303167,94.26923529303167,95.00435449101496,95.01244331902126,95.26567350199912,None,0,,,,95.2648812510306,sub-003,ses-main-base-z-1,run-1,grey,2024-04-25_13h42.27.549,VDT,2023.2.3,120.76449775602003,2024-04-25 13h42.48.458407 +0200,
./images_beh/Sphere_Ref_BG-grey_stim-white.png,0,92,92,92,95.31379836803535,,,,,,,,,,95.26644037704682,95.31379836803535,95.31379836803535,96.00355322501855,96.06221908103907,96.18665578804212,['space'],0,0.484399265027605,None,,,sub-003,ses-main-base-z-1,run-1,grey,2024-04-25_13h42.27.549,VDT,2023.2.3,120.76449775602003,2024-04-25 13h42.48.458407 +0200,
./images_beh/Sphere_CCW-1.5_BG-grey_stim-white.png,0,93,93,93,96.23481737304246,,,,,,,,,,96.18783286900725,96.25025993405143,96.25025993405143,97.00208138604648,96.9948005330516,97.19576197804417,None,0,,,,,sub-003,ses-main-base-z-1,run-1,grey,2024-04-25_13h42.27.549,VDT,2023.2.3,120.76449775602003,2024-04-25 13h42.48.458407 +0200,
./images_beh/Sphere_CCW-1.5_BG-grey_stim-white.png,0,94,94,94,97.24507640203228,,,,,,,,,,97.19651093002176,97.2501354230335,97.2501354230335,98.01433280203491,97.9963842680445,98.26730103301816,None,0,,,98.26110797101865,98.26110797101865,sub-003,ses-main-base-z-1,run-1,grey,2024-04-25_13h42.27.549,VDT,2023.2.3,120.76449775602003,2024-04-25 13h42.48.458407 +0200,
./images_beh/Sphere_Ref_BG-grey_stim-white.png,0,95,95,95,98.3157551070326,,,,,,,,,,98.2680265600211,98.3157551070326,98.3157551070326,99.0101804320002,99.06032101501478,99.22788867604686,['space'],0,0.47311074601020664,None,,,sub-003,ses-main-base-z-1,run-1,grey,2024-04-25_13h42.27.549,VDT,2023.2.3,120.76449775602003,2024-04-25 13h42.48.458407 +0200,
./images_beh/Sphere_CCW-1.5_BG-grey_stim-white.png,0,96,96,96,99.27568100305507,,,,,,,,,,99.22923434601398,99.27568100305507,99.27568100305507,100.009886956017,100.01633555605076,100.25029500102391,None,0,,,,100.24927261401899,sub-003,ses-main-base-z-1,run-1,grey,2024-04-25_13h42.27.549,VDT,2023.2.3,120.76449775602003,2024-04-25 13h42.48.458407 +0200,
./images_beh/Sphere_CCW-1.5_BG-grey_stim-white.png,0,97,97,97,100.29973612702452,,,,,,,,,,100.25125016103266,100.29973612702452,100.29973612702452,101.00894569203956,101.04225876700366,101.23340659902897,None,0,,,,,sub-003,ses-main-base-z-1,run-1,grey,2024-04-25_13h42.27.549,VDT,2023.2.3,120.76449775602003,2024-04-25 13h42.48.458407 +0200,
./images_beh/Sphere_Ref_BG-grey_stim-white.png,0,98,98,98,101.27916295500472,,,,,,,,,,101.23413045605412,101.27916295500472,101.27916295500472,102.0088497500401,102.02518214500742,102.19276992604136,['space'],0,0.4450691500096582,None,,,sub-003,ses-main-base-z-1,run-1,grey,2024-04-25_13h42.27.549,VDT,2023.2.3,120.76449775602003,2024-04-25 13h42.48.458407 +0200,
./images_beh/Sphere_CCW-1.5_BG-grey_stim-white.png,0,99,99,99,102.23884250503033,,,,,,,,,,102.19405146804638,102.27553561201785,102.27553561201785,103.00816837704042,103.01456929103006,103.18257853400428,None,0,,,,,sub-003,ses-main-base-z-1,run-1,grey,2024-04-25_13h42.27.549,VDT,2023.2.3,120.76449775602003,2024-04-25 13h42.48.458407 +0200,
./images_beh/Sphere_CCW-1.5_BG-grey_stim-white.png,0,100,100,100,103.22744551900541,,,,,,,,,,103.18331019202014,103.25821705302224,103.25821705302224,104.0075671710074,103.99622920702677,104.24433313001646,None,0,,,,,sub-003,ses-main-base-z-1,run-1,grey,2024-04-25_13h42.27.549,VDT,2023.2.3,120.76449775602003,2024-04-25 13h42.48.458407 +0200,
./images_beh/Sphere_CW-1.5_BG-grey_stim-white.png,0,101,101,101,104.29197562800255,,,,,,,,,,104.24507531704148,104.29197562800255,104.29197562800255,105.00739893101854,105.04045684903394,105.19765501801157,None,0,,,,,sub-003,ses-main-base-z-1,run-1,grey,2024-04-25_13h42.27.549,VDT,2023.2.3,120.76449775602003,2024-04-25 13h42.48.458407 +0200,
./images_beh/Sphere_Ref_BG-grey_stim-white.png,0,102,102,102,105.23822800203925,,,,,,,,,,105.19822845503222,105.26276610500645,105.26276610500645,106.00650705303997,106.00650705303997,106.17416074703215,['space'],0,0.5907647120184265,None,,,sub-003,ses-main-base-z-1,run-1,grey,2024-04-25_13h42.27.549,VDT,2023.2.3,120.76449775602003,2024-04-25 13h42.48.458407 +0200,
./images_beh/Sphere_CW-1.5_BG-grey_stim-white.png,0,103,103,103,106.21923119801795,,,,,,,,,,106.17558345501311,106.25639898702502,106.25639898702502,107.00619694305351,106.99483191600302,107.19754355901387,None,0,,,,,sub-003,ses-main-base-z-1,run-1,grey,2024-04-25_13h42.27.549,VDT,2023.2.3,120.76449775602003,2024-04-25 13h42.48.458407 +0200,
./images_beh/Sphere_CCW-1.5_BG-grey_stim-white.png,0,104,104,104,107.24182740802644,,,,,,,,,,107.19826541905059,107.2621917030192,107.2621917030192,108.00582076702267,108.00582076702267,108.19010133604752,None,0,,,,,sub-003,ses-main-base-z-1,run-1,grey,2024-04-25_13h42.27.549,VDT,2023.2.3,120.76449775602003,2024-04-25 13h42.48.458407 +0200,
./images_beh/Sphere_CW-1.5_BG-grey_stim-white.png,0,105,105,105,108.23419722600374,,,,,,,,,,108.19081715802895,108.2618976040394,108.2618976040394,109.00515596603509,109.00515596603509,109.22276590304682,None,0,,,,,sub-003,ses-main-base-z-1,run-1,grey,2024-04-25_13h42.27.549,VDT,2023.2.3,120.76449775602003,2024-04-25 13h42.48.458407 +0200,
./images_beh/Sphere_CW-1.5_BG-grey_stim-white.png,0,106,106,106,109.27091477502836,,,,,,,,,,109.22369327105116,109.27091477502836,109.27091477502836,110.00479759305017,110.01145597704453,110.24446976900799,None,0,,,,110.24369468400255,sub-003,ses-main-base-z-1,run-1,grey,2024-04-25_13h42.27.549,VDT,2023.2.3,120.76449775602003,2024-04-25 13h42.48.458407 +0200,
./images_beh/Sphere_CW-1.5_BG-grey_stim-white.png,0,107,107,107,110.29238290403737,,,,,,,,,,110.24521354405442,110.29238290403737,110.29238290403737,111.02077428600751,111.03756297205109,111.23863777104998,None,0,,,,,sub-003,ses-main-base-z-1,run-1,grey,2024-04-25_13h42.27.549,VDT,2023.2.3,120.76449775602003,2024-04-25 13h42.48.458407 +0200,
./images_beh/Sphere_CCW-1.5_BG-grey_stim-white.png,0,108,108,108,111.28226229501888,,,,,,,,,,111.23936591501115,111.28226229501888,111.28226229501888,112.00982163200388,112.02598886203486,112.20459685905371,None,0,,,,,sub-003,ses-main-base-z-1,run-1,grey,2024-04-25_13h42.27.549,VDT,2023.2.3,120.76449775602003,2024-04-25 13h42.48.458407 +0200,
./images_beh/Sphere_CW-1.5_BG-grey_stim-white.png,0,109,109,109,112.2503526500077,,,,,,,,,,112.20566299505299,112.27010590600548,112.27010590600548,113.00944099301705,113.00944099301705,113.21078080002917,None,0,,,,,sub-003,ses-main-base-z-1,run-1,grey,2024-04-25_13h42.27.549,VDT,2023.2.3,120.76449775602003,2024-04-25 13h42.48.458407 +0200,
./images_beh/Sphere_Ref_BG-grey_stim-white.png,0,110,110,110,113.25927389605204,,,,,,,,,,113.2115123650292,113.269869270036,113.269869270036,114.00855764304288,114.00855764304288,114.20343306602444,['space'],0,0.6317867260077037,None,,,sub-003,ses-main-base-z-1,run-1,grey,2024-04-25_13h42.27.549,VDT,2023.2.3,120.76449775602003,2024-04-25 13h42.48.458407 +0200,
./images_beh/Sphere_CCW-1.5_BG-grey_stim-white.png,0,111,111,111,114.24894172500353,,,,,,,,,,114.2046249610139,114.25448803504696,114.25448803504696,115.00843365205219,115.00201012002071,115.2195004420355,None,0,,,,,sub-003,ses-main-base-z-1,run-1,grey,2024-04-25_13h42.27.549,VDT,2023.2.3,120.76449775602003,2024-04-25 13h42.48.458407 +0200,
./images_beh/Sphere_CW-1.5_BG-grey_stim-white.png,0,112,112,112,115.26480061904294,,,,,,,,,,115.22034857200924,115.26480061904294,115.26480061904294,116.00769820105052,116.00769820105052,116.22484656202141,None,0,,,,,sub-003,ses-main-base-z-1,run-1,grey,2024-04-25_13h42.27.549,VDT,2023.2.3,120.76449775602003,2024-04-25 13h42.48.458407 +0200,
./images_beh/Sphere_Ref_BG-grey_stim-white.png,0,113,113,113,116.26901483500842,,,,,,,,,,116.22544458904304,116.26901483500842,116.26901483500842,117.00838306301739,117.01769138302188,117.22480964200804,['space'],0,0.48118960997089744,None,,,sub-003,ses-main-base-z-1,run-1,grey,2024-04-25_13h42.27.549,VDT,2023.2.3,120.76449775602003,2024-04-25 13h42.48.458407 +0200,
./images_beh/Sphere_CW-1.5_BG-grey_stim-white.png,0,114,114,114,117.27046248799888,,,,,,,,,,117.22558568400564,117.27046248799888,117.27046248799888,118.00700728804804,118.0168840160477,118.24148345005233,None,0,,,,,sub-003,ses-main-base-z-1,run-1,grey,2024-04-25_13h42.27.549,VDT,2023.2.3,120.76449775602003,2024-04-25 13h42.48.458407 +0200,
./images_beh/Sphere_CCW-1.5_BG-grey_stim-white.png,0,115,115,115,118.28603523800848,,,,,,,,,,118.2420901050209,118.28603523800848,118.28603523800848,119.00713311001891,119.03335620102007,119.19036470801802,None,0,,,,,sub-003,ses-main-base-z-1,run-1,grey,2024-04-25_13h42.27.549,VDT,2023.2.3,120.76449775602003,2024-04-25 13h42.48.458407 +0200,
./images_beh/Sphere_Ref_BG-grey_stim-white.png,0,116,116,116,119.23508433805546,,,,,,,,,,119.19106252503116,119.2551605310291,119.2551605310291,120.0054926390294,119.99951090605464,120.2004185000551,['space'],0,0.549092018045485,None,,,sub-003,ses-main-base-z-1,run-1,grey,2024-04-25_13h42.27.549,VDT,2023.2.3,120.76449775602003,2024-04-25 13h42.48.458407 +0200,
./images_beh/Sphere_CW-1.5_BG-grey_stim-white.png,0,117,117,117,120.2472443060251,,,,,,,,,,120.20159891905496,120.25220213405555,120.25220213405555,121.00615195999853,120.99919092701748,121.23325902002398,None,0,,,,,sub-003,ses-main-base-z-1,run-1,grey,2024-04-25_13h42.27.549,VDT,2023.2.3,120.76449775602003,2024-04-25 13h42.48.458407 +0200,
./images_beh/Sphere_CW-1.5_BG-grey_stim-white.png,0,118,118,118,121.27738137502456,,,,,,,,,,121.23394411703339,121.27738137502456,121.27738137502456,122.00722201901954,122.02233099599835,122.2395773610333,None,0,,,,,sub-003,ses-main-base-z-1,run-1,grey,2024-04-25_13h42.27.549,VDT,2023.2.3,120.76449775602003,2024-04-25 13h42.48.458407 +0200,
./images_beh/Sphere_CCW-1.5_BG-grey_stim-white.png,0,119,119,119,122.285762006999,,,,,,,,,,122.24029115604935,122.285762006999,122.285762006999,123.01724819099763,123.04880012600916,123.2226270440151,None,0,,,,,sub-003,ses-main-base-z-1,run-1,grey,2024-04-25_13h42.27.549,VDT,2023.2.3,120.76449775602003,2024-04-25 13h42.48.458407 +0200,
./images_beh/Sphere_CCW-1.5_BG-grey_stim-white.png,0,120,120,120,123.27261283504777,,,,,,,,,,123.22336015902692,123.27261283504777,123.27261283504777,124.00493981904583,124.02044542104704,124.20116274501197,None,0,,,,,sub-003,ses-main-base-z-1,run-1,grey,2024-04-25_13h42.27.549,VDT,2023.2.3,120.76449775602003,2024-04-25 13h42.48.458407 +0200,
./images_beh/Sphere_CCW-1.5_BG-grey_stim-white.png,0,121,121,121,124.2485290710465,,,,,,,,,,124.2018937440007,124.26425395603292,124.26425395603292,125.00336246204097,125.00336246204097,125.18826623202767,None,0,,,,,sub-003,ses-main-base-z-1,run-1,grey,2024-04-25_13h42.27.549,VDT,2023.2.3,120.76449775602003,2024-04-25 13h42.48.458407 +0200,
./images_beh/Sphere_CW-1.5_BG-grey_stim-white.png,0,122,122,122,125.23587706300896,,,,,,,,,,125.18898923904635,125.252849720011,125.252849720011,126.00387024803786,125.99663417000556,126.20511958800489,None,0,,,,,sub-003,ses-main-base-z-1,run-1,grey,2024-04-25_13h42.27.549,VDT,2023.2.3,120.76449775602003,2024-04-25 13h42.48.458407 +0200,
./images_beh/Sphere_Ref_BG-grey_stim-white.png,0,123,123,123,126.24903892900329,,,,,,,,,,126.20613240101375,126.26286663505016,126.26286663505016,127.00289541104576,127.00289541104576,127.1972802960081,['space'],0,0.5194866479723714,None,,,sub-003,ses-main-base-z-1,run-1,grey,2024-04-25_13h42.27.549,VDT,2023.2.3,120.76449775602003,2024-04-25 13h42.48.458407 +0200,
./images_beh/Sphere_CW-1.5_BG-grey_stim-white.png,0,124,124,124,127.2414979590103,,,,,,,,,,127.19827151304344,127.25126356404508,127.25126356404508,128.0022527120309,127.99554585001897,128.18692695704522,None,0,,,,,sub-003,ses-main-base-z-1,run-1,grey,2024-04-25_13h42.27.549,VDT,2023.2.3,120.76449775602003,2024-04-25 13h42.48.458407 +0200,
./images_beh/Sphere_CCW-1.5_BG-grey_stim-white.png,0,125,125,125,128.2344421070302,,,,,,,,,,128.18766018003225,128.2503230170114,128.2503230170114,129.00159551302204,129.00159551302204,129.21226808801293,None,0,,,,,sub-003,ses-main-base-z-1,run-1,grey,2024-04-25_13h42.27.549,VDT,2023.2.3,120.76449775602003,2024-04-25 13h42.48.458407 +0200,
./images_beh/Sphere_CW-1.5_BG-grey_stim-white.png,0,126,126,126,129.25772952701664,,,,,,,,,,129.2131058560335,129.25772952701664,129.25772952701664,130.00104748702142,130.00104748702142,130.1860785750323,None,0,,,,,sub-003,ses-main-base-z-1,run-1,grey,2024-04-25_13h42.27.549,VDT,2023.2.3,120.76449775602003,2024-04-25 13h42.48.458407 +0200,
./images_beh/Sphere_CCW-1.5_BG-grey_stim-white.png,0,127,127,127,130.2351069280412,,,,,,,,,,130.1870494390023,130.24998408404645,130.24998408404645,131.0011073850328,130.99428219301626,131.19548481504899,None,0,,,,,sub-003,ses-main-base-z-1,run-1,grey,2024-04-25_13h42.27.549,VDT,2023.2.3,120.76449775602003,2024-04-25 13h42.48.458407 +0200,
./images_beh/Sphere_CCW-1.5_BG-grey_stim-white.png,0,128,128,128,131.24212347401772,,,,,,,,,,131.19625247601653,131.2610343170236,131.2610343170236,132.01294110401068,131.99911967699882,132.17806400900008,None,0,,,,,sub-003,ses-main-base-z-1,run-1,grey,2024-04-25_13h42.27.549,VDT,2023.2.3,120.76449775602003,2024-04-25 13h42.48.458407 +0200,
./images_beh/Sphere_Ref_BG-grey_stim-white.png,0,129,129,129,132.2223434370244,,,,,,,,,,132.1788462960394,132.2599959730287,132.2599959730287,133.00938652502373,132.99723148404155,133.2100832820288,['space'],0,0.5767546650022268,None,,,sub-003,ses-main-base-z-1,run-1,grey,2024-04-25_13h42.27.549,VDT,2023.2.3,120.76449775602003,2024-04-25 13h42.48.458407 +0200,
./images_beh/Sphere_CCW-1.5_BG-grey_stim-white.png,0,130,130,130,133.24900665599853,,,,,,,,,,133.21102687803796,133.2589303230052,133.2589303230052,134.00946520501748,134.00946520501748,134.21257551404415,None,0,,,,,sub-003,ses-main-base-z-1,run-1,grey,2024-04-25_13h42.27.549,VDT,2023.2.3,120.76449775602003,2024-04-25 13h42.48.458407 +0200,
./images_beh/Sphere_CW-1.5_BG-grey_stim-white.png,0,131,131,131,134.26058997801738,,,,,,,,,,134.2135710180155,134.26058997801738,134.26058997801738,135.00890018901555,135.00890018901555,135.21703153202543,None,0,,,,,sub-003,ses-main-base-z-1,run-1,grey,2024-04-25_13h42.27.549,VDT,2023.2.3,120.76449775602003,2024-04-25 13h42.48.458407 +0200,
./images_beh/Sphere_Ref_BG-grey_stim-white.png,0,132,132,132,135.26634568802547,,,,,,,,,,135.2178217060282,135.26634568802547,135.26634568802547,136.01073170703603,136.02751657401677,136.163938110054,['space'],0,0.7705576570006087,None,,,sub-003,ses-main-base-z-1,run-1,grey,2024-04-25_13h42.27.549,VDT,2023.2.3,120.76449775602003,2024-04-25 13h42.48.458407 +0200,
./images_beh/Sphere_CW-1.5_BG-grey_stim-white.png,0,133,133,133,136.20360932900803,,,,,,,,,,136.16459033003775,136.25794893404236,136.25794893404236,137.00779691204662,136.99691160803195,137.22557393100578,None,0,,,,,sub-003,ses-main-base-z-1,run-1,grey,2024-04-25_13h42.27.549,VDT,2023.2.3,120.76449775602003,2024-04-25 13h42.48.458407 +0200,
./images_beh/Sphere_CCW-1.5_BG-grey_stim-white.png,0,134,134,134,137.2726412860211,,,,,,,,,,137.2263173260144,137.2726412860211,137.2726412860211,138.01006056001643,138.02649260603357,138.2082590230275,None,0,,,,,sub-003,ses-main-base-z-1,run-1,grey,2024-04-25_13h42.27.549,VDT,2023.2.3,120.76449775602003,2024-04-25 13h42.48.458407 +0200,
./images_beh/Sphere_CCW-1.5_BG-grey_stim-white.png,0,135,135,135,138.25709913502214,,,,,,,,,,138.20931453304365,138.26295581000159,138.26295581000159,139.00676835601917,139.00676835601917,139.20760602405062,None,0,,,,,sub-003,ses-main-base-z-1,run-1,grey,2024-04-25_13h42.27.549,VDT,2023.2.3,120.76449775602003,2024-04-25 13h42.48.458407 +0200,
./images_beh/Sphere_CCW-1.5_BG-grey_stim-white.png,0,136,136,136,139.25275643001078,,,,,,,,,,139.2084105440299,139.25882040301803,139.25882040301803,140.00885614100844,140.00885614100844,140.2311743440223,None,0,,,,,sub-003,ses-main-base-z-1,run-1,grey,2024-04-25_13h42.27.549,VDT,2023.2.3,120.76449775602003,2024-04-25 13h42.48.458407 +0200,
./images_beh/Sphere_Ref_BG-grey_stim-white.png,0,137,137,137,140.27494368504267,,,,,,,,,,140.23187595704803,140.27494368504267,140.27494368504267,141.00585634703748,141.02208435401553,141.17319220904028,None,0,,,,,sub-003,ses-main-base-z-1,run-1,grey,2024-04-25_13h42.27.549,VDT,2023.2.3,120.76449775602003,2024-04-25 13h42.48.458407 +0200,
./images_beh/Sphere_CW-1.5_BG-grey_stim-white.png,0,138,138,138,141.21596176701132,,,,,,,,,,141.17379943002015,141.2746555940248,141.2746555940248,142.0050596500514,142.02161472500302,142.2061679730541,None,0,,,,,sub-003,ses-main-base-z-1,run-1,grey,2024-04-25_13h42.27.549,VDT,2023.2.3,120.76449775602003,2024-04-25 13h42.48.458407 +0200,
./images_beh/Sphere_CW-1.5_BG-grey_stim-white.png,0,139,139,139,142.25219968002057,,,,,,,,,,142.20700232003583,142.25722717301687,142.25722717301687,143.0045679640025,143.0045679640025,143.25612517504487,None,0,,,143.25471147004282,143.25471147004282,sub-003,ses-main-base-z-1,run-1,grey,2024-04-25_13h42.27.549,VDT,2023.2.3,120.76449775602003,2024-04-25 13h42.48.458407 +0200,
./images_beh/Sphere_CW-1.5_BG-grey_stim-white.png,0,140,140,140,143.304138528998,,,,,,,,,,143.25704074802343,143.304138528998,143.304138528998,144.00412527803564,144.0443201060407,144.20516136899823,None,0,,,,,sub-003,ses-main-base-z-1,run-1,grey,2024-04-25_13h42.27.549,VDT,2023.2.3,120.76449775602003,2024-04-25 13h42.48.458407 +0200,
./images_beh/Sphere_Ref_BG-grey_stim-white.png,0,141,141,141,144.25460441200994,,,,,,,,,,144.20619740203256,144.26008516503498,144.26008516503498,145.0092742110137,145.00342461804394,145.1953214899986,['space'],0,0.5848622969933785,None,,,sub-003,ses-main-base-z-1,run-1,grey,2024-04-25_13h42.27.549,VDT,2023.2.3,120.76449775602003,2024-04-25 13h42.48.458407 +0200,
./images_beh/Sphere_CW-1.5_BG-grey_stim-white.png,0,142,142,142,145.24213181401137,,,,,,,,,,145.19629760703538,145.25848451501224,145.25848451501224,146.0101822570432,146.00314077403164,146.1937422650517,None,0,,,,,sub-003,ses-main-base-z-1,run-1,grey,2024-04-25_13h42.27.549,VDT,2023.2.3,120.76449775602003,2024-04-25 13h42.48.458407 +0200,
./images_beh/Sphere_CCW-1.5_BG-grey_stim-white.png,0,143,143,143,146.24191975203576,,,,,,,,,,146.1946549930144,146.25843151204754,146.25843151204754,147.009224998008,147.0023252890096,147.2204437390319,None,0,,,,,sub-003,ses-main-base-z-1,run-1,grey,2024-04-25_13h42.27.549,VDT,2023.2.3,120.76449775602003,2024-04-25 13h42.48.458407 +0200,
./images_beh/Sphere_CW-1.5_BG-grey_stim-white.png,0,144,144,144,147.26852454204345,,,,,,,,,,147.2212519290042,147.26852454204345,147.26852454204345,148.00761010905262,148.00761010905262,148.2024676130386,None,0,,,,,sub-003,ses-main-base-z-1,run-1,grey,2024-04-25_13h42.27.549,VDT,2023.2.3,120.76449775602003,2024-04-25 13h42.48.458407 +0200,
./images_beh/Sphere_CW-1.5_BG-grey_stim-white.png,0,145,145,145,148.24214185302844,,,,,,,,,,148.20327297400218,148.25725287600653,148.25725287600653,149.00725741503993,149.00122928601922,149.21885772701353,None,0,,,,,sub-003,ses-main-base-z-1,run-1,grey,2024-04-25_13h42.27.549,VDT,2023.2.3,120.76449775602003,2024-04-25 13h42.48.458407 +0200,
./images_beh/Sphere_CW-1.5_BG-grey_stim-white.png,0,146,146,146,149.26008910301607,,,,,,,,,,149.21954198600724,149.26008910301607,149.26008910301607,150.007755980012,150.007755980012,150.18479122401914,None,0,,,,,sub-003,ses-main-base-z-1,run-1,grey,2024-04-25_13h42.27.549,VDT,2023.2.3,120.76449775602003,2024-04-25 13h42.48.458407 +0200,
./images_beh/Sphere_Ref_BG-grey_stim-white.png,0,147,147,147,150.22448354202788,,,,,,,,,,150.1855757170124,150.25631586904638,150.25631586904638,151.00665335700614,151.00033181201434,151.20831182500115,None,0,,,,,sub-003,ses-main-base-z-1,run-1,grey,2024-04-25_13h42.27.549,VDT,2023.2.3,120.76449775602003,2024-04-25 13h42.48.458407 +0200,
./images_beh/Sphere_CCW-1.5_BG-grey_stim-white.png,0,148,148,148,151.25427646003664,,,,,,,,,,151.209042632021,151.26687064801808,151.26687064801808,152.00689599802718,152.00689599802718,152.18947863404173,None,0,,,,,sub-003,ses-main-base-z-1,run-1,grey,2024-04-25_13h42.27.549,VDT,2023.2.3,120.76449775602003,2024-04-25 13h42.48.458407 +0200,
./images_beh/Sphere_CCW-1.5_BG-grey_stim-white.png,0,149,149,149,152.23052883002674,,,,,,,,,,152.19005187402945,152.2546039680019,152.2546039680019,153.0051965690218,152.99925952003105,153.20672182604903,None,0,,,,,sub-003,ses-main-base-z-1,run-1,grey,2024-04-25_13h42.27.549,VDT,2023.2.3,120.76449775602003,2024-04-25 13h42.48.458407 +0200,
./images_beh/Sphere_CCW-1.5_BG-grey_stim-white.png,0,150,150,150,153.25497242301935,,,,,,,,,,153.20760061900364,153.26610238000285,153.26610238000285,154.00519837305183,154.00519837305183,154.23299590405077,None,0,,,,,sub-003,ses-main-base-z-1,run-1,grey,2024-04-25_13h42.27.549,VDT,2023.2.3,120.76449775602003,2024-04-25 13h42.48.458407 +0200,
./images_beh/Sphere_CCW-1.5_BG-grey_stim-white.png,0,151,151,151,154.2804475510493,,,,,,,,,,154.2339002060471,154.2804475510493,154.2804475510493,155.00722204404883,155.02248850400792,155.2063099060324,None,0,,,,,sub-003,ses-main-base-z-1,run-1,grey,2024-04-25_13h42.27.549,VDT,2023.2.3,120.76449775602003,2024-04-25 13h42.48.458407 +0200,
./images_beh/Sphere_CCW-1.5_BG-grey_stim-white.png,0,152,152,152,155.25496965803904,,,,,,,,,,155.2070489730104,155.26516328804428,155.26516328804428,156.00479121500393,156.00479121500393,156.20180873200297,None,0,,,,,sub-003,ses-main-base-z-1,run-1,grey,2024-04-25_13h42.27.549,VDT,2023.2.3,120.76449775602003,2024-04-25 13h42.48.458407 +0200,
./images_beh/Sphere_Ref_BG-grey_stim-white.png,0,153,153,153,156.2482859410229,,,,,,,,,,156.20255143201211,156.25397457601503,156.25397457601503,157.00530312705087,157.00530312705087,157.20098256703932,['space'],0,0.583798862004187,None,,,sub-003,ses-main-base-z-1,run-1,grey,2024-04-25_13h42.27.549,VDT,2023.2.3,120.76449775602003,2024-04-25 13h42.48.458407 +0200,
./images_beh/Sphere_CW-1.5_BG-grey_stim-white.png,0,154,154,154,157.2475985920173,,,,,,,,,,157.20220908202464,157.25356103503145,157.25356103503145,158.0029080120148,157.99687406403245,158.21460436302004,None,0,,,,,sub-003,ses-main-base-z-1,run-1,grey,2024-04-25_13h42.27.549,VDT,2023.2.3,120.76449775602003,2024-04-25 13h42.48.458407 +0200,
./images_beh/Sphere_CCW-1.5_BG-grey_stim-white.png,0,155,155,155,158.2603586440091,,,,,,,,,,158.2155661380384,158.2603586440091,158.2603586440091,159.01347058301326,159.01347058301326,159.18094219104387,None,0,,,,,sub-003,ses-main-base-z-1,run-1,grey,2024-04-25_13h42.27.549,VDT,2023.2.3,120.76449775602003,2024-04-25 13h42.48.458407 +0200,
./images_beh/Sphere_Ref_BG-grey_stim-white.png,0,156,156,156,159.22634978202404,,,,,,,,,,159.1819158210419,159.25246111000888,159.25246111000888,160.00349033100065,159.9961449590046,160.23049853701377,['space'],0,0.5214990489766933,None,,,sub-003,ses-main-base-z-1,run-1,grey,2024-04-25_13h42.27.549,VDT,2023.2.3,120.76449775602003,2024-04-25 13h42.48.458407 +0200,
./images_beh/Sphere_CCW-1.5_BG-grey_stim-white.png,0,157,157,157,160.27963826304767,,,,,,,,,,160.2318063720013,160.27963826304767,160.27963826304767,161.00307616899954,161.01870653801598,161.23069171101088,None,0,,,,,sub-003,ses-main-base-z-1,run-1,grey,2024-04-25_13h42.27.549,VDT,2023.2.3,120.76449775602003,2024-04-25 13h42.48.458407 +0200,
./images_beh/Sphere_CW-1.5_BG-grey_stim-white.png,0,158,158,158,161.2786297860439,,,,,,,,,,161.23163580801338,161.2786297860439,161.2786297860439,162.00327278202167,162.01834623503964,162.17922583402833,None,0,,,,,sub-003,ses-main-base-z-1,run-1,grey,2024-04-25_13h42.27.549,VDT,2023.2.3,120.76449775602003,2024-04-25 13h42.48.458407 +0200,
./images_beh/Sphere_Ref_BG-grey_stim-white.png,0,159,159,159,162.22520071902545,,,,,,,,,,162.18028251000214,162.25033169903327,162.25033169903327,162.99944809201406,162.99944809201406,163.19742835103534,['space'],0,0.6990707050426863,None,,,sub-003,ses-main-base-z-1,run-1,grey,2024-04-25_13h42.27.549,VDT,2023.2.3,120.76449775602003,2024-04-25 13h42.48.458407 +0200,
./images_beh/Sphere_CW-1.5_BG-grey_stim-white.png,0,160,160,160,163.24294855602784,,,,,,,,,,163.1984051699983,163.26086158305407,163.26086158305407,164.01067029102705,163.99983765999787,164.20210605300963,None,0,,,,,sub-003,ses-main-base-z-1,run-1,grey,2024-04-25_13h42.27.549,VDT,2023.2.3,120.76449775602003,2024-04-25 13h42.48.458407 +0200,
./images_beh/Sphere_CW-1.5_BG-grey_stim-white.png,0,161,161,161,164.24988907400984,,,,,,,,,,164.2028339030221,164.26007255900186,164.26007255900186,165.0102278550039,164.99921529600397,165.19472225703066,None,0,,,,,sub-003,ses-main-base-z-1,run-1,grey,2024-04-25_13h42.27.549,VDT,2023.2.3,120.76449775602003,2024-04-25 13h42.48.458407 +0200,
./images_beh/Sphere_CCW-1.5_BG-grey_stim-white.png,0,162,162,162,165.2419702350162,,,,,,,,,,165.19599385600304,165.25989823404234,165.25989823404234,166.0098324030405,166.0098324030405,166.27735516102985,None,0,,,166.24816543405177,166.24816543405177,sub-003,ses-main-base-z-1,run-1,grey,2024-04-25_13h42.27.549,VDT,2023.2.3,120.76449775602003,2024-04-25 13h42.48.458407 +0200,
./images_beh/Sphere_CW-1.5_BG-grey_stim-white.png,0,163,163,163,166.3266410480137,,,,,,,,,,166.2785301480326,166.3266410480137,166.3266410480137,167.00918359402567,167.07558031304507,167.16759853099938,None,0,,,,,sub-003,ses-main-base-z-1,run-1,grey,2024-04-25_13h42.27.549,VDT,2023.2.3,120.76449775602003,2024-04-25 13h42.48.458407 +0200,
./images_beh/Sphere_CCW-1.5_BG-grey_stim-white.png,0,164,164,164,167.21268058405258,,,,,,,,,,167.16819421603577,167.2591246580123,167.2591246580123,168.01130496204132,167.99739969405346,168.23357374203624,None,0,,,,,sub-003,ses-main-base-z-1,run-1,grey,2024-04-25_13h42.27.549,VDT,2023.2.3,120.76449775602003,2024-04-25 13h42.48.458407 +0200,
./images_beh/Sphere_Ref_BG-grey_stim-white.png,0,165,165,165,168.28265926404856,,,,,,,,,,168.23430184903555,168.28265926404856,168.28265926404856,169.00769034202676,169.0308194780373,169.19233770901337,['space'],0,0.5710076739778742,None,,,sub-003,ses-main-base-z-1,run-1,grey,2024-04-25_13h42.27.549,VDT,2023.2.3,120.76449775602003,2024-04-25 13h42.48.458407 +0200,
./images_beh/Sphere_CW-1.5_BG-grey_stim-white.png,0,166,166,166,169.23916113004088,,,,,,,,,,169.19364184403094,169.26324532501167,169.26324532501167,170.007673189044,170.007673189044,170.22538413404254,None,0,,,,,sub-003,ses-main-base-z-1,run-1,grey,2024-04-25_13h42.27.549,VDT,2023.2.3,120.76449775602003,2024-04-25 13h42.48.458407 +0200,
./images_beh/Sphere_CCW-1.5_BG-grey_stim-white.png,0,167,167,167,170.27340165001806,,,,,,,,,,170.22634325601393,170.27340165001806,170.27340165001806,171.00737125304295,171.01463482604595,171.22702196100727,None,0,,,,,sub-003,ses-main-base-z-1,run-1,grey,2024-04-25_13h42.27.549,VDT,2023.2.3,120.76449775602003,2024-04-25 13h42.48.458407 +0200,
./images_beh/Sphere_CCW-1.5_BG-grey_stim-white.png,0,168,168,168,171.27275992004434,,,,,,,,,,171.2277534190216,171.27275992004434,171.27275992004434,172.01367200503591,172.01367200503591,172.2636154080392,None,0,,,172.2623388650245,172.25679444300476,sub-003,ses-main-base-z-1,run-1,grey,2024-04-25_13h42.27.549,VDT,2023.2.3,120.76449775602003,2024-04-25 13h42.48.458407 +0200,
./images_beh/Sphere_Ref_BG-grey_stim-white.png,0,169,169,169,172.31150977301877,,,,,,,,,,172.2643617010326,172.31150977301877,172.31150977301877,173.00581593101379,173.05535886302823,173.30716449202737,['space'],0,0.6138754229759797,None,173.3061003970215,173.24513231404126,sub-003,ses-main-base-z-1,run-1,grey,2024-04-25_13h42.27.549,VDT,2023.2.3,120.76449775602003,2024-04-25 13h42.48.458407 +0200,
./images_beh/Sphere_CCW-1.5_BG-grey_stim-white.png,0,170,170,170,173.3551904920023,,,,,,,,,,173.30858541105408,173.3551904920023,173.3551904920023,174.0057280450128,174.10552007105434,174.27296130504692,None,0,,,,174.24380720499903,sub-003,ses-main-base-z-1,run-1,grey,2024-04-25_13h42.27.549,VDT,2023.2.3,120.76449775602003,2024-04-25 13h42.48.458407 +0200,
./images_beh/Sphere_CW-1.5_BG-grey_stim-white.png,0,171,171,171,174.31865454104263,,,,,,,,,,174.27493698900798,174.31865454104263,174.31865454104263,175.00481877400307,175.06150757404976,175.2083715760382,None,0,,,,,sub-003,ses-main-base-z-1,run-1,grey,2024-04-25_13h42.27.549,VDT,2023.2.3,120.76449775602003,2024-04-25 13h42.48.458407 +0200,
./images_beh/Sphere_CW-1.5_BG-grey_stim-white.png,0,172,172,172,175.2530864950386,,,,,,,,,,175.2091802220093,175.25834487599786,175.25834487599786,176.00425790500594,176.00425790500594,176.19622505403822,None,0,,,,,sub-003,ses-main-base-z-1,run-1,grey,2024-04-25_13h42.27.549,VDT,2023.2.3,120.76449775602003,2024-04-25 13h42.48.458407 +0200,
./images_beh/Sphere_CW-1.5_BG-grey_stim-white.png,0,173,173,173,176.2396995970048,,,,,,,,,,176.1970564229996,176.26121975301066,176.26121975301066,177.02053606405389,177.02053606405389,177.18874613504158,None,0,,,,,sub-003,ses-main-base-z-1,run-1,grey,2024-04-25_13h42.27.549,VDT,2023.2.3,120.76449775602003,2024-04-25 13h42.48.458407 +0200,
./images_beh/Sphere_Ref_BG-grey_stim-white.png,0,174,174,174,177.2349421600229,,,,,,,,,,177.18954232800752,177.25977587600937,177.25977587600937,178.0033225690131,178.0033225690131,178.2114905490307,['space'],0,0.47279078199062496,None,,,sub-003,ses-main-base-z-1,run-1,grey,2024-04-25_13h42.27.549,VDT,2023.2.3,120.76449775602003,2024-04-25 13h42.48.458407 +0200,
./images_beh/Sphere_CW-1.5_BG-grey_stim-white.png,0,175,175,175,178.2590072140447,,,,,,,,,,178.21250453800894,178.2590072140447,178.2590072140447,179.01027053099824,179.00307356205303,179.21004767902195,None,0,,,,,sub-003,ses-main-base-z-1,run-1,grey,2024-04-25_13h42.27.549,VDT,2023.2.3,120.76449775602003,2024-04-25 13h42.48.458407 +0200,
./images_beh/Sphere_CCW-1.5_BG-grey_stim-white.png,0,176,176,176,179.2534785500029,,,,,,,,,,179.21063436800614,179.2592838530545,179.2592838530545,180.00888824102003,180.00241164001636,180.21025197702693,None,0,,,,,sub-003,ses-main-base-z-1,run-1,grey,2024-04-25_13h42.27.549,VDT,2023.2.3,120.76449775602003,2024-04-25 13h42.48.458407 +0200,
./images_beh/Sphere_Ref_BG-grey_stim-white.png,0,177,177,177,180.2554691430414,,,,,,,,,,180.21089684200706,180.26877482200507,180.26877482200507,181.00792156002717,181.00792156002717,181.19227809103904,['space'],0,0.5035535750212148,None,,,sub-003,ses-main-base-z-1,run-1,grey,2024-04-25_13h42.27.549,VDT,2023.2.3,120.76449775602003,2024-04-25 13h42.48.458407 +0200,
./images_beh/Sphere_CCW-1.5_BG-grey_stim-white.png,0,178,178,178,181.23471835802775,,,,,,,,,,181.19303657201817,181.25712689803913,181.25712689803913,182.00885259005008,182.0014629920479,182.2693910280359,None,0,,,182.25141629303107,182.25141629303107,sub-003,ses-main-base-z-1,run-1,grey,2024-04-25_13h42.27.549,VDT,2023.2.3,120.76449775602003,2024-04-25 13h42.48.458407 +0200,
./images_beh/Sphere_CW-1.5_BG-grey_stim-white.png,0,179,179,179,182.31650312204147,,,,,,,,,,182.2702903400059,182.31650312204147,182.31650312204147,183.00720975804143,183.056736536033,183.16936532902764,None,0,,,,,sub-003,ses-main-base-z-1,run-1,grey,2024-04-25_13h42.27.549,VDT,2023.2.3,120.76449775602003,2024-04-25 13h42.48.458407 +0200,
./images_beh/Sphere_CW-1.5_BG-grey_stim-white.png,0,180,180,180,183.216055840021,,,,,,,,,,183.17014028102858,183.25753508805064,183.25753508805064,184.00637870904757,184.00637870904757,184.19206855003722,None,0,,,,,sub-003,ses-main-base-z-1,run-1,grey,2024-04-25_13h42.27.549,VDT,2023.2.3,120.76449775602003,2024-04-25 13h42.48.458407 +0200,
./images_beh/Sphere_CCW-1.5_BG-grey_stim-white.png,0,181,181,181,184.24051921104547,,,,,,,,,,184.1928017870523,184.25536881299922,184.25536881299922,185.0070012670476,185.00029291200917,185.23470947804162,None,0,,,,,sub-003,ses-main-base-z-1,run-1,grey,2024-04-25_13h42.27.549,VDT,2023.2.3,120.76449775602003,2024-04-25 13h42.48.458407 +0200,
./images_beh/Sphere_Ref_BG-grey_stim-white.png,0,182,182,182,185.28070271504112,,,,,,,,,,185.2355000130483,185.28070271504112,185.28070271504112,186.00587531004567,186.02189722802723,186.18901593104238,['space'],0,0.5803566909744404,None,,,sub-003,ses-main-base-z-1,run-1,grey,2024-04-25_13h42.27.549,VDT,2023.2.3,120.76449775602003,2024-04-25 13h42.48.458407 +0200,
./images_beh/Sphere_CCW-1.5_BG-grey_stim-white.png,0,183,183,183,186.23332412203308,,,,,,,,,,186.18977772502694,186.25455034000333,186.25455034000333,187.00551963801263,186.99877552501857,187.19970279204426,None,0,,,,,sub-003,ses-main-base-z-1,run-1,grey,2024-04-25_13h42.27.549,VDT,2023.2.3,120.76449775602003,2024-04-25 13h42.48.458407 +0200,
./images_beh/Sphere_CCW-1.5_BG-grey_stim-white.png,0,184,184,184,187.24707021703944,,,,,,,,,,187.20069591101492,187.2525579490466,187.2525579490466,188.0150455670082,188.00112012802856,188.17299322003964,None,0,,,,,sub-003,ses-main-base-z-1,run-1,grey,2024-04-25_13h42.27.549,VDT,2023.2.3,120.76449775602003,2024-04-25 13h42.48.458407 +0200,
./images_beh/Sphere_Ref_BG-grey_stim-white.png,0,185,185,185,188.21989808400394,,,,,,,,,,188.17372585000703,188.25423409801442,188.25423409801442,189.00404060800793,189.00404060800793,189.18827718601096,['space'],0,0.6956279100268148,None,,,sub-003,ses-main-base-z-1,run-1,grey,2024-04-25_13h42.27.549,VDT,2023.2.3,120.76449775602003,2024-04-25 13h42.48.458407 +0200,
./images_beh/Sphere_CW-1.5_BG-grey_stim-white.png,0,186,186,186,189.23323109804187,,,,,,,,,,189.18913439300377,189.2533124720212,189.2533124720212,190.01734807901084,189.99998786504148,190.20151165901916,None,0,,,,,sub-003,ses-main-base-z-1,run-1,grey,2024-04-25_13h42.27.549,VDT,2023.2.3,120.76449775602003,2024-04-25 13h42.48.458407 +0200,
./images_beh/Sphere_CW-1.5_BG-grey_stim-white.png,0,187,187,187,190.24800970900105,,,,,,,,,,190.20224773004884,190.2536931410432,190.2536931410432,191.00330872804625,190.99688075802987,191.20553121401463,None,0,,,,,sub-003,ses-main-base-z-1,run-1,grey,2024-04-25_13h42.27.549,VDT,2023.2.3,120.76449775602003,2024-04-25 13h42.48.458407 +0200,
./images_beh/Sphere_Ref_BG-grey_stim-white.png,0,188,188,188,191.25215717800893,,,,,,,,,,191.2062552710413,191.2635843930184,191.2635843930184,192.01527808100218,192.01527808100218,192.18080666201422,['space'],0,0.7735872310004197,None,,,sub-003,ses-main-base-z-1,run-1,grey,2024-04-25_13h42.27.549,VDT,2023.2.3,120.76449775602003,2024-04-25 13h42.48.458407 +0200,
./images_beh/Sphere_CW-1.5_BG-grey_stim-white.png,0,189,189,189,192.2262393150013,,,,,,,,,,192.1819617220317,192.2517264940543,192.2517264940543,193.00391069805482,192.99606378399767,193.22024277900346,None,0,,,,,sub-003,ses-main-base-z-1,run-1,grey,2024-04-25_13h42.27.549,VDT,2023.2.3,120.76449775602003,2024-04-25 13h42.48.458407 +0200,
./images_beh/Sphere_CCW-1.5_BG-grey_stim-white.png,0,190,190,190,193.264235456998,,,,,,,,,,193.22084641904803,193.264235456998,193.264235456998,194.00213884800905,194.0149013250484,194.2190214060247,None,0,,,,,sub-003,ses-main-base-z-1,run-1,grey,2024-04-25_13h42.27.549,VDT,2023.2.3,120.76449775602003,2024-04-25 13h42.48.458407 +0200,
./images_beh/Sphere_CCW-1.5_BG-grey_stim-white.png,0,191,191,191,194.26465458405437,,,,,,,,,,194.2197024510242,194.26465458405437,194.26465458405437,195.00213738903403,195.01370801904704,195.2356940130121,None,0,,,,,sub-003,ses-main-base-z-1,run-1,grey,2024-04-25_13h42.27.549,VDT,2023.2.3,120.76449775602003,2024-04-25 13h42.48.458407 +0200,
./images_beh/Sphere_CW-1.5_BG-grey_stim-white.png,0,192,192,192,195.27947343402775,,,,,,,,,,195.23628218704835,195.27947343402775,195.27947343402775,196.01117180800065,196.02768753404962,196.2958515480277,None,0,,,196.27800813299837,196.2634889970068,sub-003,ses-main-base-z-1,run-1,grey,2024-04-25_13h42.27.549,VDT,2023.2.3,120.76449775602003,2024-04-25 13h42.48.458407 +0200,
./images_beh/Sphere_CCW-1.5_BG-grey_stim-white.png,0,193,193,193,196.34205621801084,,,,,,,,,,196.29701712500537,196.34205621801084,196.34205621801084,197.0104157020105,197.0832363750087,197.28066268202383,None,0,,,,197.26309128804132,sub-003,ses-main-base-z-1,run-1,grey,2024-04-25_13h42.27.549,VDT,2023.2.3,120.76449775602003,2024-04-25 13h42.48.458407 +0200,
./images_beh/Sphere_Ref_BG-grey_stim-white.png,0,194,194,194,197.3301806700183,,,,,,,,,,197.28176417405484,197.3301806700183,197.3301806700183,198.00996156100882,198.0790434180526,198.21793350501684,['space'],0,0.38711723795859143,None,,,sub-003,ses-main-base-z-1,run-1,grey,2024-04-25_13h42.27.549,VDT,2023.2.3,120.76449775602003,2024-04-25 13h42.48.458407 +0200,
./images_beh/Sphere_CW-1.5_BG-grey_stim-white.png,0,195,195,195,198.2675393469981,,,,,,,,,,198.21898140601115,198.2675393469981,198.2675393469981,199.00990236300277,199.01717900001677,199.2126454260433,None,0,,,,,sub-003,ses-main-base-z-1,run-1,grey,2024-04-25_13h42.27.549,VDT,2023.2.3,120.76449775602003,2024-04-25 13h42.48.458407 +0200,
./images_beh/Sphere_CCW-1.5_BG-grey_stim-white.png,0,196,196,196,199.26068202999886,,,,,,,,,,199.21350122301374,199.26068202999886,199.26068202999886,200.00904915301362,200.00904915301362,200.21733635902638,None,0,,,,,sub-003,ses-main-base-z-1,run-1,grey,2024-04-25_13h42.27.549,VDT,2023.2.3,120.76449775602003,2024-04-25 13h42.48.458407 +0200,
./images_beh/Sphere_CW-1.5_BG-grey_stim-white.png,0,197,197,197,200.26556396402884,,,,,,,,,,200.21806814603042,200.26556396402884,200.26556396402884,201.00844881800003,201.00844881800003,201.22647774103098,None,0,,,,,sub-003,ses-main-base-z-1,run-1,grey,2024-04-25_13h42.27.549,VDT,2023.2.3,120.76449775602003,2024-04-25 13h42.48.458407 +0200,
./images_beh/Sphere_CW-1.5_BG-grey_stim-white.png,0,198,198,198,201.27361792500596,,,,,,,,,,201.22726311802398,201.27361792500596,201.27361792500596,202.00778084504418,202.01448580401484,202.19207320001442,None,0,,,,,sub-003,ses-main-base-z-1,run-1,grey,2024-04-25_13h42.27.549,VDT,2023.2.3,120.76449775602003,2024-04-25 13h42.48.458407 +0200,
./images_beh/Sphere_CCW-1.5_BG-grey_stim-white.png,0,199,199,199,202.24015978601528,,,,,,,,,,202.19346215605037,202.25760297803208,202.25760297803208,203.0102458150359,202.9963297790382,203.19775858300272,['space'],0,0.47545512299984694,None,,,sub-003,ses-main-base-z-1,run-1,grey,2024-04-25_13h42.27.549,VDT,2023.2.3,120.76449775602003,2024-04-25 13h42.48.458407 +0200,
./images_beh/Sphere_Ref_BG-grey_stim-white.png,0,200,200,200,203.24286625004606,,,,,,,,,,203.19851678604027,203.26274247904075,203.26274247904075,204.0149249060196,204.0149249060196,204.20756823103875,['space'],0,0.74286190897692,None,,,sub-003,ses-main-base-z-1,run-1,grey,2024-04-25_13h42.27.549,VDT,2023.2.3,120.76449775602003,2024-04-25 13h42.48.458407 +0200,
./images_beh/Sphere_CCW-1.5_BG-grey_stim-white.png,0,201,201,201,204.2509732519975,,,,,,,,,,204.20860760705546,204.25639358104672,204.25639358104672,205.00897433405044,204.99508193100337,205.2076511530322,None,0,,,,,sub-003,ses-main-base-z-1,run-1,grey,2024-04-25_13h42.27.549,VDT,2023.2.3,120.76449775602003,2024-04-25 13h42.48.458407 +0200,
./images_beh/Sphere_CW-1.5_BG-grey_stim-white.png,0,202,202,202,205.2555284910486,,,,,,,,,,205.20894456101814,205.26150927104754,205.26150927104754,206.00863893702626,206.00863893702626,206.23120075004408,None,0,,,,,sub-003,ses-main-base-z-1,run-1,grey,2024-04-25_13h42.27.549,VDT,2023.2.3,120.76449775602003,2024-04-25 13h42.48.458407 +0200,
./images_beh/Sphere_Ref_BG-grey_stim-white.png,0,203,203,203,206.28056540503167,,,,,,,,,,206.2319314700435,206.28056540503167,206.28056540503167,207.00579898501746,207.0221867930377,207.17554478603415,None,0,,,,,sub-003,ses-main-base-z-1,run-1,grey,2024-04-25_13h42.27.549,VDT,2023.2.3,120.76449775602003,2024-04-25 13h42.48.458407 +0200,
./images_beh/Sphere_CCW-1.5_BG-grey_stim-white.png,0,204,204,204,207.22060932405293,,,,,,,,,,207.17628279799828,207.2616829010076,207.2616829010076,208.00501247204375,208.00501247204375,208.2287035790505,None,0,,,,,sub-003,ses-main-base-z-1,run-1,grey,2024-04-25_13h42.27.549,VDT,2023.2.3,120.76449775602003,2024-04-25 13h42.48.458407 +0200,
./images_beh/Sphere_CW-1.5_BG-grey_stim-white.png,0,205,205,205,208.27687592501752,,,,,,,,,,208.22948303603334,208.27687592501752,208.27687592501752,209.02096150803845,209.02782699401723,209.17899531603325,None,0,,,,,sub-003,ses-main-base-z-1,run-1,grey,2024-04-25_13h42.27.549,VDT,2023.2.3,120.76449775602003,2024-04-25 13h42.48.458407 +0200,
./images_beh/Sphere_CCW-1.5_BG-grey_stim-white.png,0,206,206,206,209.22666100802599,,,,,,,,,,209.18020503601292,209.26098398602335,209.26098398602335,210.01109053601976,210.00398813700303,210.1944774290314,None,0,,,,,sub-003,ses-main-base-z-1,run-1,grey,2024-04-25_13h42.27.549,VDT,2023.2.3,120.76449775602003,2024-04-25 13h42.48.458407 +0200,
./images_beh/Sphere_Ref_BG-grey_stim-white.png,0,207,207,207,210.23845893103862,,,,,,,,,,210.19525699905353,210.2593854390434,210.2593854390434,211.0113223050139,211.00388123403536,211.25971074204426,['space'],0,0.7457677249913104,None,211.25884817703627,211.25884817703627,sub-003,ses-main-base-z-1,run-1,grey,2024-04-25_13h42.27.549,VDT,2023.2.3,120.76449775602003,2024-04-25 13h42.48.458407 +0200,
./images_beh/Sphere_CW-1.5_BG-grey_stim-white.png,0,208,208,208,211.30585706001148,,,,,,,,,,211.26070162199903,211.30585706001148,211.30585706001148,212.01023778604576,212.05260054802056,212.20436479104683,None,0,,,,,sub-003,ses-main-base-z-1,run-1,grey,2024-04-25_13h42.27.549,VDT,2023.2.3,120.76449775602003,2024-04-25 13h42.48.458407 +0200,
./images_beh/Sphere_CCW-1.5_BG-grey_stim-white.png,0,209,209,209,212.25167187303305,,,,,,,,,,212.20562445704127,212.25730277603725,212.25730277603725,213.00930109701585,213.00230482104234,213.2532344070496,['space'],0,0.7723497060360387,None,213.2520775270532,213.2520775270532,sub-003,ses-main-base-z-1,run-1,grey,2024-04-25_13h42.27.549,VDT,2023.2.3,120.76449775602003,2024-04-25 13h42.48.458407 +0200,
./images_beh/Sphere_CW-1.5_BG-grey_stim-white.png,0,210,210,210,213.2998453930486,,,,,,,,,,213.25439397001173,213.2998453930486,213.2998453930486,214.0098306540167,214.0415311290417,214.1861695680418,None,0,,,,,sub-003,ses-main-base-z-1,run-1,grey,2024-04-25_13h42.27.549,VDT,2023.2.3,120.76449775602003,2024-04-25 13h42.48.458407 +0200,
./images_beh/Sphere_CCW-1.5_BG-grey_stim-white.png,0,211,211,211,214.23161179502495,,,,,,,,,,214.1871443830314,214.2567750880262,214.2567750880262,215.00740072701592,215.00129701202968,215.18516086804448,None,0,,,,,sub-003,ses-main-base-z-1,run-1,grey,2024-04-25_13h42.27.549,VDT,2023.2.3,120.76449775602003,2024-04-25 13h42.48.458407 +0200,
./images_beh/Sphere_Ref_BG-grey_stim-white.png,0,212,212,212,215.23229736101348,,,,,,,,,,215.18631386902416,215.256468934007,215.256468934007,216.00682568602497,216.00066060305107,216.20136256702244,['space'],0,0.5571965770213865,None,,,sub-003,ses-main-base-z-1,run-1,grey,2024-04-25_13h42.27.549,VDT,2023.2.3,120.76449775602003,2024-04-25 13h42.48.458407 +0200,
./images_beh/Sphere_CW-1.5_BG-grey_stim-white.png,0,213,213,213,216.2462816890329,,,,,,,,,,216.2027032590122,216.2511003660038,216.2511003660038,217.0066660810262,216.9889986870112,217.21765807201155,None,0,,,,,sub-003,ses-main-base-z-1,run-1,grey,2024-04-25_13h42.27.549,VDT,2023.2.3,120.76449775602003,2024-04-25 13h42.48.458407 +0200,
./images_beh/Sphere_CCW-1.5_BG-grey_stim-white.png,0,214,214,214,217.26758572401013,,,,,,,,,,217.2188092750148,217.26758572401013,217.26758572401013,218.00690117600607,218.0164228930371,218.2007282510167,None,0,,,,,sub-003,ses-main-base-z-1,run-1,grey,2024-04-25_13h42.27.549,VDT,2023.2.3,120.76449775602003,2024-04-25 13h42.48.458407 +0200,
./images_beh/Sphere_CW-1.5_BG-grey_stim-white.png,0,215,215,215,218.24544236902148,,,,,,,,,,218.2016565890517,218.25057787902188,218.25057787902188,219.005027834035,218.9988443440525,219.20643653802108,None,0,,,,,sub-003,ses-main-base-z-1,run-1,grey,2024-04-25_13h42.27.549,VDT,2023.2.3,120.76449775602003,2024-04-25 13h42.48.458407 +0200,
./images_beh/Sphere_CW-1.5_BG-grey_stim-white.png,0,216,216,216,219.254966462031,,,,,,,,,,219.20716696901945,219.2653939620359,219.2653939620359,220.00473637902178,220.00473637902178,220.24920563201886,None,0,,,,220.24830852105515,sub-003,ses-main-base-z-1,run-1,grey,2024-04-25_13h42.27.549,VDT,2023.2.3,120.76449775602003,2024-04-25 13h42.48.458407 +0200,
./images_beh/Sphere_CCW-1.5_BG-grey_stim-white.png,0,217,217,217,220.2934910140466,,,,,,,,,,220.2501584800193,220.2934910140466,220.2934910140466,221.00544492300833,221.037051805004,221.2155665710452,None,0,,,,,sub-003,ses-main-base-z-1,run-1,grey,2024-04-25_13h42.27.549,VDT,2023.2.3,120.76449775602003,2024-04-25 13h42.48.458407 +0200,
./images_beh/Sphere_Ref_BG-grey_stim-white.png,0,218,218,218,221.26167358504608,,,,,,,,,,221.21658146200934,221.26167358504608,221.26167358504608,222.00475745403673,222.00475745403673,222.17090623802505,['space'],0,0.5108014319557697,None,,,sub-003,ses-main-base-z-1,run-1,grey,2024-04-25_13h42.27.549,VDT,2023.2.3,120.76449775602003,2024-04-25 13h42.48.458407 +0200,
./images_beh/Sphere_CW-1.5_BG-grey_stim-white.png,0,219,219,219,222.21498445305042,,,,,,,,,,222.1717902040109,222.2537846820196,222.2537846820196,223.00337688002037,222.99712165701203,223.20466457802104,None,0,,,,,sub-003,ses-main-base-z-1,run-1,grey,2024-04-25_13h42.27.549,VDT,2023.2.3,120.76449775602003,2024-04-25 13h42.48.458407 +0200,
./images_beh/Sphere_CCW-1.5_BG-grey_stim-white.png,0,220,220,220,223.24759841203922,,,,,,,,,,223.2052659210167,223.26405280001927,223.26405280001927,224.00372222805163,224.00372222805163,224.21451937203528,None,0,,,,,sub-003,ses-main-base-z-1,run-1,grey,2024-04-25_13h42.27.549,VDT,2023.2.3,120.76449775602003,2024-04-25 13h42.48.458407 +0200,
./images_beh/Sphere_CCW-1.5_BG-grey_stim-white.png,0,221,221,221,224.2598818790284,,,,,,,,,,224.21527196001261,224.2598818790284,224.2598818790284,225.00310240103863,225.00310240103863,225.23720039002365,None,0,,,,,sub-003,ses-main-base-z-1,run-1,grey,2024-04-25_13h42.27.549,VDT,2023.2.3,120.76449775602003,2024-04-25 13h42.48.458407 +0200,
./images_beh/Sphere_Ref_BG-grey_stim-white.png,0,222,222,222,225.28444496600423,,,,,,,,,,225.23792729503475,225.28444496600423,225.28444496600423,226.00266818603268,226.0289022020297,226.16932899603853,['space'],0,0.45634301798418164,None,,,sub-003,ses-main-base-z-1,run-1,grey,2024-04-25_13h42.27.549,VDT,2023.2.3,120.76449775602003,2024-04-25 13h42.48.458407 +0200,
./images_beh/Sphere_CCW-1.5_BG-grey_stim-white.png,0,223,223,223,226.21308536903234,,,,,,,,,,226.17012417700607,226.2646796660265,226.2646796660265,227.00282872404205,227.011917137017,227.19631511403713,['space'],0,0.7823639289708808,None,,,sub-003,ses-main-base-z-1,run-1,grey,2024-04-25_13h42.27.549,VDT,2023.2.3,120.76449775602003,2024-04-25 13h42.48.458407 +0200,
./images_beh/Sphere_CW-1.5_BG-grey_stim-white.png,0,224,224,224,227.2418003170169,,,,,,,,,,227.1971655000234,227.25069848704152,227.25069848704152,228.0020647700294,228.0020647700294,228.1695699620177,None,0,,,,,sub-003,ses-main-base-z-1,run-1,grey,2024-04-25_13h42.27.549,VDT,2023.2.3,120.76449775602003,2024-04-25 13h42.48.458407 +0200,
./images_beh/Sphere_CW-1.5_BG-grey_stim-white.png,0,225,225,225,228.21876248001354,,,,,,,,,,228.17048493603943,228.25078121502884,228.25078121502884,229.0009794520447,229.0009794520447,229.21131994004827,None,0,,,,,sub-003,ses-main-base-z-1,run-1,grey,2024-04-25_13h42.27.549,VDT,2023.2.3,120.76449775602003,2024-04-25 13h42.48.458407 +0200,
./images_beh/Sphere_Ref_BG-grey_stim-white.png,0,226,226,226,229.25001475401223,,,,,,,,,,229.211931155005,229.2600846940186,229.2600846940186,230.0103989080526,229.99957427399931,230.18333005602472,None,0,,,,,sub-003,ses-main-base-z-1,run-1,grey,2024-04-25_13h42.27.549,VDT,2023.2.3,120.76449775602003,2024-04-25 13h42.48.458407 +0200,
./images_beh/Sphere_CW-1.5_BG-grey_stim-white.png,0,227,227,227,230.22386333200848,,,,,,,,,,230.18384588102344,230.24980986403534,230.24980986403534,231.0121278980514,230.99532442400232,231.179717319028,None,0,,,,,sub-003,ses-main-base-z-1,run-1,grey,2024-04-25_13h42.27.549,VDT,2023.2.3,120.76449775602003,2024-04-25 13h42.48.458407 +0200,
./images_beh/Sphere_CW-1.5_BG-grey_stim-white.png,0,228,228,228,231.22428839304484,,,,,,,,,,231.1804795380449,231.26015503902454,231.26015503902454,232.01162574300542,231.9978349370067,232.1772769500385,None,0,,,,,sub-003,ses-main-base-z-1,run-1,grey,2024-04-25_13h42.27.549,VDT,2023.2.3,120.76449775602003,2024-04-25 13h42.48.458407 +0200,
./images_beh/Sphere_CCW-1.5_BG-grey_stim-white.png,0,229,229,229,232.22448467602953,,,,,,,,,,232.17808091000188,232.25916881801095,232.25916881801095,233.00887143600266,232.9977485850104,233.24412649602164,None,0,,,,,sub-003,ses-main-base-z-1,run-1,grey,2024-04-25_13h42.27.549,VDT,2023.2.3,120.76449775602003,2024-04-25 13h42.48.458407 +0200,
./images_beh/Sphere_Ref_BG-grey_stim-white.png,0,230,230,230,233.29338109504897,,,,,,,,,,233.24494446103927,233.29338109504897,233.29338109504897,234.00808623200282,234.04354009201052,234.21169614203973,['space'],0,0.5352622760110535,None,,,sub-003,ses-main-base-z-1,run-1,grey,2024-04-25_13h42.27.549,VDT,2023.2.3,120.76449775602003,2024-04-25 13h42.48.458407 +0200,
./images_beh/Sphere_CCW-1.5_BG-grey_stim-white.png,0,231,231,231,234.260301877046,,,,,,,,,,234.21273996302625,234.260301877046,234.260301877046,235.0079474740196,235.0079474740196,235.24799296900164,None,0,,,,235.24721139401663,sub-003,ses-main-base-z-1,run-1,grey,2024-04-25_13h42.27.549,VDT,2023.2.3,120.76449775602003,2024-04-25 13h42.48.458407 +0200,
./images_beh/Sphere_CW-1.5_BG-grey_stim-white.png,0,232,232,232,235.29620965901995,,,,,,,,,,235.24871389003238,235.29620965901995,235.29620965901995,236.00733856705483,236.04067293502158,236.1749624920194,None,0,,,,,sub-003,ses-main-base-z-1,run-1,grey,2024-04-25_13h42.27.549,VDT,2023.2.3,120.76449775602003,2024-04-25 13h42.48.458407 +0200,
./images_beh/Sphere_CCW-1.5_BG-grey_stim-white.png,0,233,233,233,236.21798821503762,,,,,,,,,,236.17556862602942,236.25733673101058,236.25733673101058,237.00686823599972,236.99587306001922,237.17456576303812,None,0,,,,,sub-003,ses-main-base-z-1,run-1,grey,2024-04-25_13h42.27.549,VDT,2023.2.3,120.76449775602003,2024-04-25 13h42.48.458407 +0200,
./images_beh/Sphere_CW-1.5_BG-grey_stim-white.png,0,234,234,234,237.22172701201634,,,,,,,,,,237.1753416910069,237.25669923605165,237.25669923605165,238.00649084703764,237.99586260301294,238.25967535504606,None,0,,,238.24490152404178,238.24490152404178,sub-003,ses-main-base-z-1,run-1,grey,2024-04-25_13h42.27.549,VDT,2023.2.3,120.76449775602003,2024-04-25 13h42.48.458407 +0200,
./images_beh/Sphere_CW-1.5_BG-grey_stim-white.png,0,235,235,235,238.30790604802314,,,,,,,,,,238.26039008703083,238.30790604802314,238.30790604802314,239.00558887905208,239.0554753190372,239.20629341702443,None,0,,,,,sub-003,ses-main-base-z-1,run-1,grey,2024-04-25_13h42.27.549,VDT,2023.2.3,120.76449775602003,2024-04-25 13h42.48.458407 +0200,
./images_beh/Sphere_Ref_BG-grey_stim-white.png,0,236,236,236,239.2455404070206,,,,,,,,,,239.20695953600807,239.25476351304678,239.25476351304678,240.0095844330499,239.99249304604018,240.21013841504464,['space'],0,0.6619172699865885,None,,,sub-003,ses-main-base-z-1,run-1,grey,2024-04-25_13h42.27.549,VDT,2023.2.3,120.76449775602003,2024-04-25 13h42.48.458407 +0200,
./images_beh/Sphere_CW-1.5_BG-grey_stim-white.png,0,237,237,237,240.24177398200845,,,,,,,,,,240.21049205603776,240.26012713101227,240.26012713101227,241.0047765330528,241.0047765330528,241.25549465604126,None,0,,,241.2544607820455,241.24426766304532,sub-003,ses-main-base-z-1,run-1,grey,2024-04-25_13h42.27.549,VDT,2023.2.3,120.76449775602003,2024-04-25 13h42.48.458407 +0200,
./images_beh/Sphere_CCW-1.5_BG-grey_stim-white.png,0,238,238,238,241.30334311403567,,,,,,,,,,241.2564454980311,241.30334311403567,241.30334311403567,242.0114364559995,242.0440332860453,242.19099152402487,None,0,,,,,sub-003,ses-main-base-z-1,run-1,grey,2024-04-25_13h42.27.549,VDT,2023.2.3,120.76449775602003,2024-04-25 13h42.48.458407 +0200,
./images_beh/Sphere_Ref_BG-grey_stim-white.png,0,239,239,239,242.23743959399872,,,,,,,,,,242.19171886704862,242.2593078140053,242.2593078140053,243.00918302702485,243.00341250305064,243.2048342800117,['space'],0,0.6491823680116795,None,,,sub-003,ses-main-base-z-1,run-1,grey,2024-04-25_13h42.27.549,VDT,2023.2.3,120.76449775602003,2024-04-25 13h42.48.458407 +0200,
./images_beh/Sphere_CW-1.5_BG-grey_stim-white.png,0,240,240,240,243.25444359600078,,,,,,,,,,243.20607642800314,243.269922187028,243.269922187028,244.0103497010423,244.0103497010423,244.17099928401876,None,0,,,,,sub-003,ses-main-base-z-1,run-1,grey,2024-04-25_13h42.27.549,VDT,2023.2.3,120.76449775602003,2024-04-25 13h42.48.458407 +0200,
./images_beh/Sphere_CW-1.5_BG-grey_stim-white.png,0,241,241,241,244.21604658005526,,,,,,,,,,244.17176937300246,244.27279740100494,244.27279740100494,245.0097583620227,245.01907215901883,245.24431266001193,None,0,,,,,sub-003,ses-main-base-z-1,run-1,grey,2024-04-25_13h42.27.549,VDT,2023.2.3,120.76449775602003,2024-04-25 13h42.48.458407 +0200,
./images_beh/Sphere_CW-1.5_BG-grey_stim-white.png,0,242,242,242,245.2907883520238,,,,,,,,,,245.24529022100614,245.2907883520238,245.2907883520238,246.0099157440127,246.03550213505514,246.21950187999755,None,0,,,,,sub-003,ses-main-base-z-1,run-1,grey,2024-04-25_13h42.27.549,VDT,2023.2.3,120.76449775602003,2024-04-25 13h42.48.458407 +0200,
./images_beh/Sphere_Ref_BG-grey_stim-white.png,0,243,243,243,246.2616278839996,,,,,,,,,,246.22002095304197,246.2616278839996,246.2616278839996,247.00751483201748,247.00751483201748,247.1758539910079,None,0,,,,,sub-003,ses-main-base-z-1,run-1,grey,2024-04-25_13h42.27.549,VDT,2023.2.3,120.76449775602003,2024-04-25 13h42.48.458407 +0200,
./images_beh/Sphere_CCW-1.5_BG-grey_stim-white.png,0,244,244,244,247.22398782504024,,,,,,,,,,247.17657484405208,247.2577940390329,247.2577940390329,248.00751004600897,248.00096286000917,248.20733171404572,None,0,,,,,sub-003,ses-main-base-z-1,run-1,grey,2024-04-25_13h42.27.549,VDT,2023.2.3,120.76449775602003,2024-04-25 13h42.48.458407 +0200,
./images_beh/Sphere_CCW-1.5_BG-grey_stim-white.png,0,245,245,245,248.25168295705225,,,,,,,,,,248.20810829900438,248.2567612840212,248.2567612840212,249.00750884599984,249.00049755600048,249.16814165504184,None,0,,,,,sub-003,ses-main-base-z-1,run-1,grey,2024-04-25_13h42.27.549,VDT,2023.2.3,120.76449775602003,2024-04-25 13h42.48.458407 +0200,
./images_beh/Sphere_Ref_BG-grey_stim-white.png,0,246,246,246,249.214642491017,,,,,,,,,,249.16907106601866,249.25661035702797,249.25661035702797,250.0052631960134,249.99972398002865,250.21759301400743,['space'],0,0.5319799989811145,None,,,sub-003,ses-main-base-z-1,run-1,grey,2024-04-25_13h42.27.549,VDT,2023.2.3,120.76449775602003,2024-04-25 13h42.48.458407 +0200,
./images_beh/Sphere_CCW-1.5_BG-grey_stim-white.png,0,247,247,247,250.2681434469996,,,,,,,,,,250.21887126303045,250.2681434469996,250.2681434469996,251.00642575701931,251.01597590203164,251.23947915504687,None,0,,,,,sub-003,ses-main-base-z-1,run-1,grey,2024-04-25_13h42.27.549,VDT,2023.2.3,120.76449775602003,2024-04-25 13h42.48.458407 +0200,
./images_beh/Sphere_CW-1.5_BG-grey_stim-white.png,0,248,248,248,251.287053750013,,,,,,,,,,251.24053366103908,251.287053750013,251.287053750013,252.00656320503913,252.0324959330028,252.20628834003583,None,0,,,,,sub-003,ses-main-base-z-1,run-1,grey,2024-04-25_13h42.27.549,VDT,2023.2.3,120.76449775602003,2024-04-25 13h42.48.458407 +0200,
./images_beh/Sphere_CCW-1.5_BG-grey_stim-white.png,0,249,249,249,252.25125938700512,,,,,,,,,,252.20709924102994,252.2654092760058,252.2654092760058,253.00430107105058,253.00430107105058,253.199282014044,None,0,,,,,sub-003,ses-main-base-z-1,run-1,grey,2024-04-25_13h42.27.549,VDT,2023.2.3,120.76449775602003,2024-04-25 13h42.48.458407 +0200,
./images_beh/Sphere_CCW-1.5_BG-grey_stim-white.png,0,250,250,250,253.24708035402,,,,,,,,,,253.2004295270308,253.25274735904532,253.25274735904532,254.00534480600618,254.00534480600618,254.187841357023,None,0,,,,,sub-003,ses-main-base-z-1,run-1,grey,2024-04-25_13h42.27.549,VDT,2023.2.3,120.76449775602003,2024-04-25 13h42.48.458407 +0200,
./images_beh/Sphere_CCW-1.5_BG-grey_stim-white.png,0,251,251,251,254.23248092102585,,,,,,,,,,254.18859357904876,254.2532978390227,254.2532978390227,255.00390469201375,254.9973020220059,255.24878674402134,None,0,,,255.24748049501795,255.24748049501795,sub-003,ses-main-base-z-1,run-1,grey,2024-04-25_13h42.27.549,VDT,2023.2.3,120.76449775602003,2024-04-25 13h42.48.458407 +0200,
./images_beh/Sphere_CW-1.5_BG-grey_stim-white.png,0,252,252,252,255.2963586540427,,,,,,,,,,255.24958085501567,255.2963586540427,255.2963586540427,256.0057584780152,256.04983036901103,256.2675654310151,None,0,,,,256.26675803301623,sub-003,ses-main-base-z-1,run-1,grey,2024-04-25_13h42.27.549,VDT,2023.2.3,120.76449775602003,2024-04-25 13h42.48.458407 +0200,
./images_beh/Sphere_CCW-1.5_BG-grey_stim-white.png,0,253,253,253,256.31824600702384,,,,,,,,,,256.2682999600074,256.31824600702384,256.31824600702384,257.00418501201784,257.0635051620193,257.21642084704945,None,0,,,,,sub-003,ses-main-base-z-1,run-1,grey,2024-04-25_13h42.27.549,VDT,2023.2.3,120.76449775602003,2024-04-25 13h42.48.458407 +0200,
./images_beh/Sphere_Ref_BG-grey_stim-white.png,0,254,254,254,257.2649094250519,,,,,,,,,,257.2171469349996,257.2649094250519,257.2649094250519,258.001441311033,258.0120997860213,258.1971078060451,['space'],0,0.468709148990456,None,,,sub-003,ses-main-base-z-1,run-1,grey,2024-04-25_13h42.27.549,VDT,2023.2.3,120.76449775602003,2024-04-25 13h42.48.458407 +0200,
./images_beh/Sphere_CCW-1.5_BG-grey_stim-white.png,0,255,255,255,258.2445407460327,,,,,,,,,,258.1985545710195,258.25018385000294,258.25018385000294,258.99998408101965,258.9948674600455,259.19718664104585,None,0,,,,,sub-003,ses-main-base-z-1,run-1,grey,2024-04-25_13h42.27.549,VDT,2023.2.3,120.76449775602003,2024-04-25 13h42.48.458407 +0200,
./images_beh/Sphere_CCW-1.5_BG-grey_stim-white.png,0,256,256,256,259.2439747530152,,,,,,,,,,259.19794078700943,259.24961063900264,259.24961063900264,260.00141863600584,259.9951410110225,260.2030688850209,None,0,,,,,sub-003,ses-main-base-z-1,run-1,grey,2024-04-25_13h42.27.549,VDT,2023.2.3,120.76449775602003,2024-04-25 13h42.48.458407 +0200,
./images_beh/Sphere_CCW-1.5_BG-grey_stim-white.png,0,257,257,257,260.2458067080006,,,,,,,,,,260.20365745201707,260.2617476260057,260.2617476260057,261.0137436670484,261.0137436670484,261.21259934204863,None,0,,,,,sub-003,ses-main-base-z-1,run-1,grey,2024-04-25_13h42.27.549,VDT,2023.2.3,120.76449775602003,2024-04-25 13h42.48.458407 +0200,
./images_beh/Sphere_Ref_BG-grey_stim-white.png,0,258,258,258,261.2613920660224,,,,,,,,,,261.21334036800545,261.2613920660224,261.2613920660224,262.01057308504824,262.01057308504824,262.21430535404943,['space'],0,0.7201698139542714,None,,,sub-003,ses-main-base-z-1,run-1,grey,2024-04-25_13h42.27.549,VDT,2023.2.3,120.76449775602003,2024-04-25 13h42.48.458407 +0200,
./images_beh/Sphere_CW-1.5_BG-grey_stim-white.png,0,259,259,259,262.2622136930004,,,,,,,,,,262.2152450560243,262.2622136930004,262.2622136930004,263.00996246002614,263.00996246002614,263.2002438560012,None,0,,,,,sub-003,ses-main-base-z-1,run-1,grey,2024-04-25_13h42.27.549,VDT,2023.2.3,120.76449775602003,2024-04-25 13h42.48.458407 +0200,
./images_beh/Sphere_CCW-1.5_BG-grey_stim-white.png,0,260,260,260,263.24072173505556,,,,,,,,,,263.2010443220497,263.25987252400955,263.25987252400955,264.00962240900844,263.9987848000019,264.2180116800009,None,0,,,,,sub-003,ses-main-base-z-1,run-1,grey,2024-04-25_13h42.27.549,VDT,2023.2.3,120.76449775602003,2024-04-25 13h42.48.458407 +0200,
./images_beh/Sphere_CW-1.5_BG-grey_stim-white.png,0,261,261,261,264.26743481704034,,,,,,,,,,264.21873775101267,264.26743481704034,264.26743481704034,265.00922939402517,265.0165834680083,265.22689634904964,None,0,,,,,sub-003,ses-main-base-z-1,run-1,grey,2024-04-25_13h42.27.549,VDT,2023.2.3,120.76449775602003,2024-04-25 13h42.48.458407 +0200,
./images_beh/Sphere_Ref_BG-grey_stim-white.png,0,262,262,262,265.2755156890489,,,,,,,,,,265.2281252690009,265.2755156890489,265.2755156890489,266.00946807902073,266.0147773020435,266.19972746801795,['space'],0,0.7139100609929301,None,,,sub-003,ses-main-base-z-1,run-1,grey,2024-04-25_13h42.27.549,VDT,2023.2.3,120.76449775602003,2024-04-25 13h42.48.458407 +0200,
./images_beh/Sphere_CCW-1.5_BG-grey_stim-white.png,0,263,263,263,266.24615111300955,,,,,,,,,,266.20073542703176,266.25808390200837,266.25808390200837,267.0080577250337,266.9963184000226,267.2112365780049,None,0,,,,,sub-003,ses-main-base-z-1,run-1,grey,2024-04-25_13h42.27.549,VDT,2023.2.3,120.76449775602003,2024-04-25 13h42.48.458407 +0200,
./images_beh/Sphere_CW-1.5_BG-grey_stim-white.png,0,264,264,264,267.25747295003384,,,,,,,,,,267.2124219960533,267.26345266000135,267.26345266000135,268.00789239804726,268.00789239804726,268.1975961570279,None,0,,,,,sub-003,ses-main-base-z-1,run-1,grey,2024-04-25_13h42.27.549,VDT,2023.2.3,120.76449775602003,2024-04-25 13h42.48.458407 +0200,
./images_beh/Sphere_CW-1.5_BG-grey_stim-white.png,0,265,265,265,268.2395523560117,,,,,,,,,,268.19818910502363,268.2634093670058,268.2634093670058,269.00686868902994,269.00686868902994,269.2577908640378,None,0,,,,269.24510811205255,sub-003,ses-main-base-z-1,run-1,grey,2024-04-25_13h42.27.549,VDT,2023.2.3,120.76449775602003,2024-04-25 13h42.48.458407 +0200,
./images_beh/Sphere_CW-1.5_BG-grey_stim-white.png,0,266,266,266,269.3047423150274,,,,,,,,,,269.25881995103555,269.3047423150274,269.3047423150274,270.01512535405345,270.04712915205164,270.2304601460346,None,0,,,,,sub-003,ses-main-base-z-1,run-1,grey,2024-04-25_13h42.27.549,VDT,2023.2.3,120.76449775602003,2024-04-25 13h42.48.458407 +0200,
./images_beh/Sphere_Ref_BG-grey_stim-white.png,0,267,267,267,270.2723604790517,,,,,,,,,,270.2310443080496,270.2723604790517,270.2723604790517,271.00636267103255,271.01329179899767,271.2404637990403,['space'],0,0.7811345410300419,None,,,sub-003,ses-main-base-z-1,run-1,grey,2024-04-25_13h42.27.549,VDT,2023.2.3,120.76449775602003,2024-04-25 13h42.48.458407 +0200,
./images_beh/Sphere_CCW-1.5_BG-grey_stim-white.png,0,268,268,268,271.2874051030376,,,,,,,,,,271.2415735270479,271.2874051030376,271.2874051030376,272.0054701610352,272.029284267046,272.1633647660492,None,0,,,,,sub-003,ses-main-base-z-1,run-1,grey,2024-04-25_13h42.27.549,VDT,2023.2.3,120.76449775602003,2024-04-25 13h42.48.458407 +0200,
./images_beh/Sphere_CW-1.5_BG-grey_stim-white.png,0,269,269,269,272.2086067740456,,,,,,,,,,272.16410069400445,272.2624273360125,272.2624273360125,273.0054703350179,273.0054703350179,273.26232853904366,None,0,,,273.260998272046,273.2437610170455,sub-003,ses-main-base-z-1,run-1,grey,2024-04-25_13h42.27.549,VDT,2023.2.3,120.76449775602003,2024-04-25 13h42.48.458407 +0200,
