image,trials.thisRepN,trials.thisTrialN,trials.thisN,trials.thisIndex,thisRow.t,notes,WaitingForScannerTrigger.started,Vertical.started,key_resp.started,WaitingForScannerTrigger.stopped,key_resp.keys,key_resp.corr,key_resp.rt,key_resp.duration,VDT.started,PresentedLine1.started,key_resp_2.started,FixDot2.started,PresentedLine1.stopped,VDT.stopped,key_resp_2.keys,key_resp_2.corr,key_resp_2.rt,key_resp_2.duration,FixDot2.stopped,key_resp_2.stopped,participant,session,run,BG_color,date,expName,psychopyVersion,frameRate,expStart,
,,,,,,,0.004968375957105309,0.010064292990136892,0.010064292990136892,3.164213651965838,s,0,3.1035474489908665,None,,,,,,,,,,,,,sub-003,ses-main-stim-z-1,run-1,grey,2024-04-25_14h46.00.804,VDT,2023.2.3,119.75225985230969,2024-04-25 14h49.21.573475 +0200,
./images_beh/Sphere_CW-1.5_BG-grey_stim-white.png,0,0,0,0,3.2247797529562376,,,,,,,,,,3.1850484629976563,3.2247797529562376,3.2247797529562376,3.9068313539610244,3.970977510965895,4.105217698961496,None,0,,,,,sub-003,ses-main-stim-z-1,run-1,grey,2024-04-25_14h46.00.804,VDT,2023.2.3,119.75225985230969,2024-04-25 14h49.21.573475 +0200,
./images_beh/Sphere_CW-1.5_BG-grey_stim-white.png,0,1,1,1,4.150718732969835,,,,,,,,,,4.107708142953925,4.163642954954412,4.163642954954412,4.904814378998708,4.904814378998708,5.081636236980557,None,0,,,,,sub-003,ses-main-stim-z-1,run-1,grey,2024-04-25_14h46.00.804,VDT,2023.2.3,119.75225985230969,2024-04-25 14h49.21.573475 +0200,
./images_beh/Sphere_Ref_BG-grey_stim-white.png,0,2,2,2,5.131101314967964,,,,,,,,,,5.082571554987226,5.152470900968183,5.152470900968183,5.903163279988803,5.903163279988803,6.1379896409926005,['space'],0,0.6237059690174647,None,,,sub-003,ses-main-stim-z-1,run-1,grey,2024-04-25_14h46.00.804,VDT,2023.2.3,119.75225985230969,2024-04-25 14h49.21.573475 +0200,
./images_beh/Sphere_CW-1.5_BG-grey_stim-white.png,0,3,3,3,6.1884173169964924,,,,,,,,,,6.1411521779955365,6.1884173169964924,6.1884173169964924,6.913701749988832,6.929621560964733,7.097431459988002,None,0,,,,,sub-003,ses-main-stim-z-1,run-1,grey,2024-04-25_14h46.00.804,VDT,2023.2.3,119.75225985230969,2024-04-25 14h49.21.573475 +0200,
./images_beh/Sphere_CCW-1.5_BG-grey_stim-white.png,0,4,4,4,7.145419879001565,,,,,,,,,,7.098566252971068,7.162725305999629,7.162725305999629,7.912509599991608,7.900924357993063,8.119641569966916,None,0,,,,,sub-003,ses-main-stim-z-1,run-1,grey,2024-04-25_14h46.00.804,VDT,2023.2.3,119.75225985230969,2024-04-25 14h49.21.573475 +0200,
./images_beh/Sphere_CCW-1.5_BG-grey_stim-white.png,0,5,5,5,8.167273117986042,,,,,,,,,,8.120222272991668,8.167273117986042,8.167273117986042,8.911818072956521,8.911818072956521,9.079369450977538,None,0,,,,,sub-003,ses-main-stim-z-1,run-1,grey,2024-04-25_14h46.00.804,VDT,2023.2.3,119.75225985230969,2024-04-25 14h49.21.573475 +0200,
./images_beh/Sphere_CCW-1.5_BG-grey_stim-white.png,0,6,6,6,9.125384363986086,,,,,,,,,,9.080493080953602,9.16405446297722,9.16405446297722,9.91139739198843,9.91139739198843,10.112393988005351,None,0,,,,,sub-003,ses-main-stim-z-1,run-1,grey,2024-04-25_14h46.00.804,VDT,2023.2.3,119.75225985230969,2024-04-25 14h49.21.573475 +0200,
./images_beh/Sphere_CW-1.5_BG-grey_stim-white.png,0,7,7,7,10.156762414961122,,,,,,,,,,10.11326791497413,10.16183048300445,10.16183048300445,10.91076062596403,10.899916553986259,11.078479842981324,None,0,,,,,sub-003,ses-main-stim-z-1,run-1,grey,2024-04-25_14h46.00.804,VDT,2023.2.3,119.75225985230969,2024-04-25 14h49.21.573475 +0200,
./images_beh/Sphere_CW-1.5_BG-grey_stim-white.png,0,8,8,8,11.125688380969223,,,,,,,,,,11.079427602002397,11.160706429975107,11.160706429975107,11.910329823964275,11.8984329070081,12.07826090499293,None,0,,,,,sub-003,ses-main-stim-z-1,run-1,grey,2024-04-25_14h46.00.804,VDT,2023.2.3,119.75225985230969,2024-04-25 14h49.21.573475 +0200,
./images_beh/Sphere_Ref_BG-grey_stim-white.png,0,9,9,9,12.126249984954484,,,,,,,,,,12.079040973971132,12.160407302959356,12.160407302959356,12.90962822997244,12.899206681002397,13.148997657001019,['space'],0,0.7430392159731127,None,13.148307236959226,13.148307236959226,sub-003,ses-main-stim-z-1,run-1,grey,2024-04-25_14h46.00.804,VDT,2023.2.3,119.75225985230969,2024-04-25 14h49.21.573475 +0200,
./images_beh/Sphere_CCW-1.5_BG-grey_stim-white.png,0,10,10,10,13.19557421898935,,,,,,,,,,13.149796861980576,13.19557421898935,13.19557421898935,13.909116836963221,13.942715335986577,14.126717917970382,None,0,,,,,sub-003,ses-main-stim-z-1,run-1,grey,2024-04-25_14h46.00.804,VDT,2023.2.3,119.75225985230969,2024-04-25 14h49.21.573475 +0200,
./images_beh/Sphere_CCW-1.5_BG-grey_stim-white.png,0,11,11,11,14.173763163969852,,,,,,,,,,14.12788676097989,14.173763163969852,14.173763163969852,14.90878524800064,14.914792435010895,15.09865803096909,None,0,,,,,sub-003,ses-main-stim-z-1,run-1,grey,2024-04-25_14h46.00.804,VDT,2023.2.3,119.75225985230969,2024-04-25 14h49.21.573475 +0200,
./images_beh/Sphere_Ref_BG-grey_stim-white.png,0,12,12,12,15.145605352998246,,,,,,,,,,15.099382591957692,15.16386423696531,15.16386423696531,15.908159038983285,15.908159038983285,16.10930492496118,['space'],0,0.4592027720063925,None,,,sub-003,ses-main-stim-z-1,run-1,grey,2024-04-25_14h46.00.804,VDT,2023.2.3,119.75225985230969,2024-04-25 14h49.21.573475 +0200,
./images_beh/Sphere_CW-1.5_BG-grey_stim-white.png,0,13,13,13,16.156323080009315,,,,,,,,,,16.110417575982865,16.161698003998026,16.161698003998026,16.907946405990515,16.907946405990515,17.12522283598082,None,0,,,,,sub-003,ses-main-stim-z-1,run-1,grey,2024-04-25_14h46.00.804,VDT,2023.2.3,119.75225985230969,2024-04-25 14h49.21.573475 +0200,
./images_beh/Sphere_CCW-1.5_BG-grey_stim-white.png,0,14,14,14,17.172859248996247,,,,,,,,,,17.126245232007932,17.172859248996247,17.172859248996247,17.907212162972428,17.913381213962566,18.09811661898857,None,0,,,,,sub-003,ses-main-stim-z-1,run-1,grey,2024-04-25_14h46.00.804,VDT,2023.2.3,119.75225985230969,2024-04-25 14h49.21.573475 +0200,
./images_beh/Sphere_Ref_BG-grey_stim-white.png,0,15,15,15,18.147407509968616,,,,,,,,,,18.098849851987325,18.157394905982073,18.157394905982073,18.91270451201126,18.89500981598394,19.12419537495589,['space'],0,0.4346761329798028,None,,,sub-003,ses-main-stim-z-1,run-1,grey,2024-04-25_14h46.00.804,VDT,2023.2.3,119.75225985230969,2024-04-25 14h49.21.573475 +0200,
./images_beh/Sphere_CW-1.5_BG-grey_stim-white.png,0,16,16,16,19.17205324798124,,,,,,,,,,19.125530413992237,19.17205324798124,19.17205324798124,19.91292075801175,19.91292075801175,20.090070445963647,None,0,,,,,sub-003,ses-main-stim-z-1,run-1,grey,2024-04-25_14h46.00.804,VDT,2023.2.3,119.75225985230969,2024-04-25 14h49.21.573475 +0200,
./images_beh/Sphere_CCW-1.5_BG-grey_stim-white.png,0,17,17,17,20.134683477983344,,,,,,,,,,20.091050199000165,20.1616697399877,20.1616697399877,20.9227481589769,20.908992398006376,21.08061856497079,None,0,,,,,sub-003,ses-main-stim-z-1,run-1,grey,2024-04-25_14h46.00.804,VDT,2023.2.3,119.75225985230969,2024-04-25 14h49.21.573475 +0200,
./images_beh/Sphere_CCW-1.5_BG-grey_stim-white.png,0,18,18,18,21.129989206965547,,,,,,,,,,21.081613618996926,21.16238573996816,21.16238573996816,21.924792570993304,21.924792570993304,22.122947178955656,None,0,,,,,sub-003,ses-main-stim-z-1,run-1,grey,2024-04-25_14h46.00.804,VDT,2023.2.3,119.75225985230969,2024-04-25 14h49.21.573475 +0200,
./images_beh/Sphere_CCW-1.5_BG-grey_stim-white.png,0,19,19,19,22.167425417981576,,,,,,,,,,22.123553848010488,22.167425417981576,22.167425417981576,22.911317888007034,22.911317888007034,23.112585916998796,None,0,,,,,sub-003,ses-main-stim-z-1,run-1,grey,2024-04-25_14h46.00.804,VDT,2023.2.3,119.75225985230969,2024-04-25 14h49.21.573475 +0200,
./images_beh/Sphere_CW-1.5_BG-grey_stim-white.png,0,20,20,20,23.159893806965556,,,,,,,,,,23.113308293977752,23.171468657965306,23.171468657965306,23.911098759970628,23.911098759970628,24.079127742967103,None,0,,,,,sub-003,ses-main-stim-z-1,run-1,grey,2024-04-25_14h46.00.804,VDT,2023.2.3,119.75225985230969,2024-04-25 14h49.21.573475 +0200,
./images_beh/Sphere_Ref_BG-grey_stim-white.png,0,21,21,21,24.12593509699218,,,,,,,,,,24.079845286963973,24.162089658959303,24.162089658959303,24.909207021002658,24.90337874396937,25.088180172955617,['space'],0,0.5979207420023158,None,,,sub-003,ses-main-stim-z-1,run-1,grey,2024-04-25_14h46.00.804,VDT,2023.2.3,119.75225985230969,2024-04-25 14h49.21.573475 +0200,
./images_beh/Sphere_CW-1.5_BG-grey_stim-white.png,0,22,22,22,25.134428781981114,,,,,,,,,,25.08916222798871,25.15926338295685,25.15926338295685,25.90962062199833,25.903198293992318,26.077911909960676,None,0,,,,,sub-003,ses-main-stim-z-1,run-1,grey,2024-04-25_14h46.00.804,VDT,2023.2.3,119.75225985230969,2024-04-25 14h49.21.573475 +0200,
./images_beh/Sphere_CW-1.5_BG-grey_stim-white.png,0,23,23,23,26.12669929396361,,,,,,,,,,26.078789296967443,26.17240944999503,26.17240944999503,26.910989875963423,26.919609148986638,27.10660919698421,None,0,,,,,sub-003,ses-main-stim-z-1,run-1,grey,2024-04-25_14h46.00.804,VDT,2023.2.3,119.75225985230969,2024-04-25 14h49.21.573475 +0200,
./images_beh/Sphere_Ref_BG-grey_stim-white.png,0,24,24,24,27.157488368975464,,,,,,,,,,27.107333313964773,27.16886200295994,27.16886200295994,27.908945476985537,27.908945476985537,28.153088090009987,['space'],0,0.454827731999103,None,,,sub-003,ses-main-stim-z-1,run-1,grey,2024-04-25_14h46.00.804,VDT,2023.2.3,119.75225985230969,2024-04-25 14h49.21.573475 +0200,
./images_beh/Sphere_CW-1.5_BG-grey_stim-white.png,0,25,25,25,28.20136042399099,,,,,,,,,,28.154709046997596,28.20136042399099,28.20136042399099,28.910161532985512,28.942624963005073,29.143236203992274,None,0,,,,,sub-003,ses-main-stim-z-1,run-1,grey,2024-04-25_14h46.00.804,VDT,2023.2.3,119.75225985230969,2024-04-25 14h49.21.573475 +0200,
./images_beh/Sphere_CCW-1.5_BG-grey_stim-white.png,0,26,26,26,29.193917243974283,,,,,,,,,,29.143954166967887,29.193917243974283,29.193917243974283,29.909511309990194,29.941899241995998,30.07547458895715,None,0,,,,,sub-003,ses-main-stim-z-1,run-1,grey,2024-04-25_14h46.00.804,VDT,2023.2.3,119.75225985230969,2024-04-25 14h49.21.573475 +0200,
./images_beh/Sphere_Ref_BG-grey_stim-white.png,0,27,27,27,30.122110363969114,,,,,,,,,,30.076193818007596,30.157803320966195,30.157803320966195,30.907131112995557,30.900597399973776,31.101620908011682,['space'],0,0.649433063052129,None,,,sub-003,ses-main-stim-z-1,run-1,grey,2024-04-25_14h46.00.804,VDT,2023.2.3,119.75225985230969,2024-04-25 14h49.21.573475 +0200,
./images_beh/Sphere_CCW-1.5_BG-grey_stim-white.png,0,28,28,28,31.1497311849962,,,,,,,,,,31.10303238296183,31.155167494958732,31.155167494958732,31.90718066098634,31.900071593991015,32.13534419599455,None,0,,,,,sub-003,ses-main-stim-z-1,run-1,grey,2024-04-25_14h46.00.804,VDT,2023.2.3,119.75225985230969,2024-04-25 14h49.21.573475 +0200,
./images_beh/Sphere_CW-1.5_BG-grey_stim-white.png,0,29,29,29,32.18335607700283,,,,,,,,,,32.13608554500388,32.18335607700283,32.18335607700283,32.908037555986084,32.92323981795926,33.16722694499185,None,0,,,33.15564002998872,,sub-003,ses-main-stim-z-1,run-1,grey,2024-04-25_14h46.00.804,VDT,2023.2.3,119.75225985230969,2024-04-25 14h49.21.573475 +0200,
./images_beh/Sphere_Ref_BG-grey_stim-white.png,0,30,30,30,33.217070824990515,,,,,,,,,,33.168007973989006,33.217070824990515,33.217070824990515,33.90681391797261,33.96823636395857,34.11700623098295,['space'],0,0.5256341820349917,None,,,sub-003,ses-main-stim-z-1,run-1,grey,2024-04-25_14h46.00.804,VDT,2023.2.3,119.75225985230969,2024-04-25 14h49.21.573475 +0200,
./images_beh/Sphere_CW-1.5_BG-grey_stim-white.png,0,31,31,31,34.16488663997734,,,,,,,,,,34.11809407797409,34.16488663997734,34.16488663997734,34.91757070500171,34.91757070500171,35.11660747596761,None,0,,,,,sub-003,ses-main-stim-z-1,run-1,grey,2024-04-25_14h46.00.804,VDT,2023.2.3,119.75225985230969,2024-04-25 14h49.21.573475 +0200,
./images_beh/Sphere_CW-1.5_BG-grey_stim-white.png,0,32,32,32,35.16381326899864,,,,,,,,,,35.117400109011214,35.16381326899864,35.16381326899864,35.905896037991624,35.905896037991624,36.11602361797122,None,0,,,,,sub-003,ses-main-stim-z-1,run-1,grey,2024-04-25_14h46.00.804,VDT,2023.2.3,119.75225985230969,2024-04-25 14h49.21.573475 +0200,
./images_beh/Sphere_CCW-1.5_BG-grey_stim-white.png,0,33,33,33,36.16426707996288,,,,,,,,,,36.116809553990606,36.16426707996288,36.16426707996288,36.90544756298186,36.90544756298186,37.148659618978854,None,0,,,,,sub-003,ses-main-stim-z-1,run-1,grey,2024-04-25_14h46.00.804,VDT,2023.2.3,119.75225985230969,2024-04-25 14h49.21.573475 +0200,
./images_beh/Sphere_CCW-1.5_BG-grey_stim-white.png,0,34,34,34,37.199715105991345,,,,,,,,,,37.149703026982024,37.199715105991345,37.199715105991345,37.90602358599426,37.947474839980714,38.08810637699207,None,0,,,,,sub-003,ses-main-stim-z-1,run-1,grey,2024-04-25_14h46.00.804,VDT,2023.2.3,119.75225985230969,2024-04-25 14h49.21.573475 +0200,
./images_beh/Sphere_CCW-1.5_BG-grey_stim-white.png,0,35,35,35,38.1382579409983,,,,,,,,,,38.08883924095426,38.1529233919573,38.1529233919573,38.903808242990635,38.89695758797461,39.080774483969435,None,0,,,,,sub-003,ses-main-stim-z-1,run-1,grey,2024-04-25_14h46.00.804,VDT,2023.2.3,119.75225985230969,2024-04-25 14h49.21.573475 +0200,
./images_beh/Sphere_CW-1.5_BG-grey_stim-white.png,0,36,36,36,39.129522586998064,,,,,,,,,,39.08188771200366,39.16308205400128,39.16308205400128,39.912967493000906,39.912967493000906,40.13060663698707,None,0,,,,,sub-003,ses-main-stim-z-1,run-1,grey,2024-04-25_14h46.00.804,VDT,2023.2.3,119.75225985230969,2024-04-25 14h49.21.573475 +0200,
./images_beh/Sphere_CCW-1.5_BG-grey_stim-white.png,0,37,37,37,40.181398062966764,,,,,,,,,,40.131726796971634,40.181398062966764,40.181398062966764,40.91242626897292,40.92900822899537,41.13034816895379,None,0,,,,,sub-003,ses-main-stim-z-1,run-1,grey,2024-04-25_14h46.00.804,VDT,2023.2.3,119.75225985230969,2024-04-25 14h49.21.573475 +0200,
./images_beh/Sphere_CW-1.5_BG-grey_stim-white.png,0,38,38,38,41.17592365195742,,,,,,,,,,41.131125440995675,41.17592365195742,41.17592365195742,41.91201328096213,41.92037578497548,42.083687153004576,None,0,,,,,sub-003,ses-main-stim-z-1,run-1,grey,2024-04-25_14h46.00.804,VDT,2023.2.3,119.75225985230969,2024-04-25 14h49.21.573475 +0200,
./images_beh/Sphere_Ref_BG-grey_stim-white.png,0,39,39,39,42.12363804195775,,,,,,,,,,42.08562172396341,42.16145915200468,42.16145915200468,42.91115986800287,42.899376295972615,43.13466184900608,['space'],0,0.5262437390047126,None,,,sub-003,ses-main-stim-z-1,run-1,grey,2024-04-25_14h46.00.804,VDT,2023.2.3,119.75225985230969,2024-04-25 14h49.21.573475 +0200,
./images_beh/Sphere_CW-1.5_BG-grey_stim-white.png,0,40,40,40,43.18108970898902,,,,,,,,,,43.1356972020003,43.18108970898902,43.18108970898902,43.9107833399903,43.92746586399153,44.128493479976896,None,0,,,,,sub-003,ses-main-stim-z-1,run-1,grey,2024-04-25_14h46.00.804,VDT,2023.2.3,119.75225985230969,2024-04-25 14h49.21.573475 +0200,
./images_beh/Sphere_CCW-1.5_BG-grey_stim-white.png,0,41,41,41,44.17646358796628,,,,,,,,,,44.129426096973475,44.17646358796628,44.17646358796628,44.91010623500915,44.91617010999471,45.12784231395926,None,0,,,,,sub-003,ses-main-stim-z-1,run-1,grey,2024-04-25_14h46.00.804,VDT,2023.2.3,119.75225985230969,2024-04-25 14h49.21.573475 +0200,
./images_beh/Sphere_Ref_BG-grey_stim-white.png,0,42,42,42,45.176316594006494,,,,,,,,,,45.12876171298558,45.176316594006494,45.176316594006494,45.916763988963794,45.916763988963794,46.15295650495682,['space'],0,0.9592014829977416,None,,,sub-003,ses-main-stim-z-1,run-1,grey,2024-04-25_14h46.00.804,VDT,2023.2.3,119.75225985230969,2024-04-25 14h49.21.573475 +0200,
./images_beh/Sphere_CCW-1.5_BG-grey_stim-white.png,0,43,43,43,46.195164470002055,,,,,,,,,,46.15353644400602,46.195164470002055,46.195164470002055,46.90917273698142,46.94255603099009,47.08355280995602,None,0,,,,,sub-003,ses-main-stim-z-1,run-1,grey,2024-04-25_14h46.00.804,VDT,2023.2.3,119.75225985230969,2024-04-25 14h49.21.573475 +0200,
./images_beh/Sphere_CW-1.5_BG-grey_stim-white.png,0,44,44,44,47.13171433896059,,,,,,,,,,47.0846585019608,47.16490548098227,47.16490548098227,47.909156168985646,47.909156168985646,48.13218041899381,None,0,,,,,sub-003,ses-main-stim-z-1,run-1,grey,2024-04-25_14h46.00.804,VDT,2023.2.3,119.75225985230969,2024-04-25 14h49.21.573475 +0200,
./images_beh/Sphere_CCW-1.5_BG-grey_stim-white.png,0,45,45,45,48.17680280300556,,,,,,,,,,48.13277993298834,48.17680280300556,48.17680280300556,48.908068441960495,48.92431431199657,49.092816176009364,None,0,,,,,sub-003,ses-main-stim-z-1,run-1,grey,2024-04-25_14h46.00.804,VDT,2023.2.3,119.75225985230969,2024-04-25 14h49.21.573475 +0200,
./images_beh/Sphere_Ref_BG-grey_stim-white.png,0,46,46,46,49.14207710698247,,,,,,,,,,49.093699441989884,49.163566305011045,49.163566305011045,49.90779482398648,49.90779482398648,50.1583255569567,['space'],0,0.7481625140062533,None,50.14647494698875,50.15744674997404,sub-003,ses-main-stim-z-1,run-1,grey,2024-04-25_14h46.00.804,VDT,2023.2.3,119.75225985230969,2024-04-25 14h49.21.573475 +0200,
./images_beh/Sphere_CCW-1.5_BG-grey_stim-white.png,0,47,47,47,50.20320211496437,,,,,,,,,,50.15960876096506,50.20320211496437,50.20320211496437,50.90719411999453,50.94746283796849,51.141599922964815,None,0,,,,,sub-003,ses-main-stim-z-1,run-1,grey,2024-04-25_14h46.00.804,VDT,2023.2.3,119.75225985230969,2024-04-25 14h49.21.573475 +0200,
./images_beh/Sphere_CW-1.5_BG-grey_stim-white.png,0,48,48,48,51.188344141992275,,,,,,,,,,51.142415685986634,51.188344141992275,51.188344141992275,51.914443034969736,51.929884609999135,52.124126272974536,None,0,,,,,sub-003,ses-main-stim-z-1,run-1,grey,2024-04-25_14h46.00.804,VDT,2023.2.3,119.75225985230969,2024-04-25 14h49.21.573475 +0200,
./images_beh/Sphere_CW-1.5_BG-grey_stim-white.png,0,49,49,49,52.17102214199258,,,,,,,,,,52.1252311989665,52.17102214199258,52.17102214199258,52.91251779999584,52.91251779999584,53.08027148200199,None,0,,,,,sub-003,ses-main-stim-z-1,run-1,grey,2024-04-25_14h46.00.804,VDT,2023.2.3,119.75225985230969,2024-04-25 14h49.21.573475 +0200,
./images_beh/Sphere_Ref_BG-grey_stim-white.png,0,50,50,50,53.12745310500031,,,,,,,,,,53.081056349969,53.16209436097415,53.16209436097415,53.912302860000636,53.90560167498188,54.07568500499474,['space'],0,0.5280041429796256,None,,,sub-003,ses-main-stim-z-1,run-1,grey,2024-04-25_14h46.00.804,VDT,2023.2.3,119.75225985230969,2024-04-25 14h49.21.573475 +0200,
./images_beh/Sphere_CW-1.5_BG-grey_stim-white.png,0,51,51,51,54.122875848959666,,,,,,,,,,54.07666212297045,54.174634580966085,54.174634580966085,54.924364171980415,54.924364171980415,55.16329322598176,None,0,,,,,sub-003,ses-main-stim-z-1,run-1,grey,2024-04-25_14h46.00.804,VDT,2023.2.3,119.75225985230969,2024-04-25 14h49.21.573475 +0200,
./images_beh/Sphere_CCW-1.5_BG-grey_stim-white.png,0,52,52,52,55.214593557990156,,,,,,,,,,55.164018463983666,55.214593557990156,55.214593557990156,55.91337783698691,55.96109180996427,56.10792933998164,None,0,,,,,sub-003,ses-main-stim-z-1,run-1,grey,2024-04-25_14h46.00.804,VDT,2023.2.3,119.75225985230969,2024-04-25 14h49.21.573475 +0200,
./images_beh/Sphere_CCW-1.5_BG-grey_stim-white.png,0,53,53,53,56.155796801962424,,,,,,,,,,56.10867583198706,56.16110029298579,56.16110029298579,56.9118661149987,56.90463207900757,57.07418636797229,None,0,,,,,sub-003,ses-main-stim-z-1,run-1,grey,2024-04-25_14h46.00.804,VDT,2023.2.3,119.75225985230969,2024-04-25 14h49.21.573475 +0200,
./images_beh/Sphere_CCW-1.5_BG-grey_stim-white.png,0,54,54,54,57.12138637795579,,,,,,,,,,57.07492653495865,57.16069340897957,57.16069340897957,57.92320544697577,57.907020655984525,58.15752927697031,None,0,,,,,sub-003,ses-main-stim-z-1,run-1,grey,2024-04-25_14h46.00.804,VDT,2023.2.3,119.75225985230969,2024-04-25 14h49.21.573475 +0200,
./images_beh/Sphere_CW-1.5_BG-grey_stim-white.png,0,55,55,55,58.20812751696212,,,,,,,,,,58.158260725962464,58.20812751696212,58.20812751696212,58.91066618298646,58.953053965989966,59.073279517004266,None,0,,,,,sub-003,ses-main-stim-z-1,run-1,grey,2024-04-25_14h46.00.804,VDT,2023.2.3,119.75225985230969,2024-04-25 14h49.21.573475 +0200,
./images_beh/Sphere_CW-1.5_BG-grey_stim-white.png,0,56,56,56,59.12067393795587,,,,,,,,,,59.07404636597494,59.16021809598897,59.16021809598897,59.9106001459877,59.902832768973894,60.070742762007285,None,0,,,,,sub-003,ses-main-stim-z-1,run-1,grey,2024-04-25_14h46.00.804,VDT,2023.2.3,119.75225985230969,2024-04-25 14h49.21.573475 +0200,
./images_beh/Sphere_CW-1.5_BG-grey_stim-white.png,0,57,57,57,60.11693179397844,,,,,,,,,,60.07152938697254,60.15964404499391,60.15964404499391,60.90929503500229,60.90225601597922,61.08851332496852,None,0,,,,,sub-003,ses-main-stim-z-1,run-1,grey,2024-04-25_14h46.00.804,VDT,2023.2.3,119.75225985230969,2024-04-25 14h49.21.573475 +0200,
./images_beh/Sphere_Ref_BG-grey_stim-white.png,0,58,58,58,61.13571765599772,,,,,,,,,,61.0892411149689,61.157737549976446,61.157737549976446,61.90915584395407,61.902128393005114,62.119317110977136,['space'],0,0.49851081398082897,None,,,sub-003,ses-main-stim-z-1,run-1,grey,2024-04-25_14h46.00.804,VDT,2023.2.3,119.75225985230969,2024-04-25 14h49.21.573475 +0200,
./images_beh/Sphere_CCW-1.5_BG-grey_stim-white.png,0,59,59,59,62.166393183986656,,,,,,,,,,62.12056622799719,62.166393183986656,62.166393183986656,62.90824189799605,62.90824189799605,63.092479313956574,None,0,,,,,sub-003,ses-main-stim-z-1,run-1,grey,2024-04-25_14h46.00.804,VDT,2023.2.3,119.75225985230969,2024-04-25 14h49.21.573475 +0200,
./images_beh/Sphere_CCW-1.5_BG-grey_stim-white.png,0,60,60,60,63.13659350096714,,,,,,,,,,63.093133453978226,63.15689448599005,63.15689448599005,63.90822846995434,63.90822846995434,64.10197275696555,None,0,,,,,sub-003,ses-main-stim-z-1,run-1,grey,2024-04-25_14h46.00.804,VDT,2023.2.3,119.75225985230969,2024-04-25 14h49.21.573475 +0200,
./images_beh/Sphere_Ref_BG-grey_stim-white.png,0,61,61,61,64.14800349797588,,,,,,,,,,64.10276573599549,64.15373188600643,64.15373188600643,64.91929018998053,64.9023225060082,65.1179631149862,['space'],0,0.5984176710480824,None,,,sub-003,ses-main-stim-z-1,run-1,grey,2024-04-25_14h46.00.804,VDT,2023.2.3,119.75225985230969,2024-04-25 14h49.21.573475 +0200,
./images_beh/Sphere_CW-1.5_BG-grey_stim-white.png,0,62,62,62,65.16675199195743,,,,,,,,,,65.11896182899363,65.16675199195743,65.16675199195743,65.90637627296383,65.90637627296383,66.08443125296617,None,0,,,,,sub-003,ses-main-stim-z-1,run-1,grey,2024-04-25_14h46.00.804,VDT,2023.2.3,119.75225985230969,2024-04-25 14h49.21.573475 +0200,
./images_beh/Sphere_CCW-1.5_BG-grey_stim-white.png,0,63,63,63,66.13239313999657,,,,,,,,,,66.08522178797284,66.15593996399548,66.15593996399548,66.9158067299868,66.90200706396718,67.1169693939737,None,0,,,,,sub-003,ses-main-stim-z-1,run-1,grey,2024-04-25_14h46.00.804,VDT,2023.2.3,119.75225985230969,2024-04-25 14h49.21.573475 +0200,
./images_beh/Sphere_Ref_BG-grey_stim-white.png,0,64,64,64,67.16580072196666,,,,,,,,,,67.11775261396542,67.16580072196666,67.16580072196666,67.90602053195471,67.90602053195471,68.08549361396581,None,0,,,,,sub-003,ses-main-stim-z-1,run-1,grey,2024-04-25_14h46.00.804,VDT,2023.2.3,119.75225985230969,2024-04-25 14h49.21.573475 +0200,
./images_beh/Sphere_CW-1.5_BG-grey_stim-white.png,0,65,65,65,68.13211265299469,,,,,,,,,,68.08625653298805,68.15452530398034,68.15452530398034,68.90612563595641,68.90612563595641,69.13921145995846,None,0,,,,,sub-003,ses-main-stim-z-1,run-1,grey,2024-04-25_14h46.00.804,VDT,2023.2.3,119.75225985230969,2024-04-25 14h49.21.573475 +0200,
./images_beh/Sphere_CW-1.5_BG-grey_stim-white.png,0,66,66,66,69.18626783700893,,,,,,,,,,69.13996157300426,69.18626783700893,69.18626783700893,69.91435508796712,69.93129552400205,70.13230580399977,None,0,,,,,sub-003,ses-main-stim-z-1,run-1,grey,2024-04-25_14h46.00.804,VDT,2023.2.3,119.75225985230969,2024-04-25 14h49.21.573475 +0200,
./images_beh/Sphere_CW-1.5_BG-grey_stim-white.png,0,67,67,67,70.18185250996612,,,,,,,,,,70.13308423798298,70.18185250996612,70.18185250996612,70.91398274101084,70.93044963898137,71.09846971096704,None,0,,,,,sub-003,ses-main-stim-z-1,run-1,grey,2024-04-25_14h46.00.804,VDT,2023.2.3,119.75225985230969,2024-04-25 14h49.21.573475 +0200,
./images_beh/Sphere_Ref_BG-grey_stim-white.png,0,68,68,68,71.14524578297278,,,,,,,,,,71.09924879000755,71.16580184496706,71.16580184496706,71.91247089998797,71.91247089998797,72.13784042798216,['space'],0,0.722290845005773,None,,,sub-003,ses-main-stim-z-1,run-1,grey,2024-04-25_14h46.00.804,VDT,2023.2.3,119.75225985230969,2024-04-25 14h49.21.573475 +0200,
./images_beh/Sphere_CCW-1.5_BG-grey_stim-white.png,0,69,69,69,72.1877011579927,,,,,,,,,,72.13879698497476,72.1877011579927,72.1877011579927,72.91252728598192,72.93547003896674,73.1140285099973,None,0,,,,,sub-003,ses-main-stim-z-1,run-1,grey,2024-04-25_14h46.00.804,VDT,2023.2.3,119.75225985230969,2024-04-25 14h49.21.573475 +0200,
./images_beh/Sphere_CCW-1.5_BG-grey_stim-white.png,0,70,70,70,73.16328023100505,,,,,,,,,,73.1147998519591,73.1796593759791,73.1796593759791,73.91224204696482,73.91921233996982,74.09948034398258,None,0,,,,,sub-003,ses-main-stim-z-1,run-1,grey,2024-04-25_14h46.00.804,VDT,2023.2.3,119.75225985230969,2024-04-25 14h49.21.573475 +0200,
./images_beh/Sphere_CCW-1.5_BG-grey_stim-white.png,0,71,71,71,74.1463082509581,,,,,,,,,,74.10023496800568,74.16883472795598,74.16883472795598,74.91191223397618,74.91941034299089,75.0816786569776,None,0,,,,,sub-003,ses-main-stim-z-1,run-1,grey,2024-04-25_14h46.00.804,VDT,2023.2.3,119.75225985230969,2024-04-25 14h49.21.573475 +0200,
./images_beh/Sphere_CW-1.5_BG-grey_stim-white.png,0,72,72,72,75.12806556897704,,,,,,,,,,75.08245069300756,75.16167711198796,75.16167711198796,75.9144632939715,75.90120939700864,76.08732111699646,None,0,,,,,sub-003,ses-main-stim-z-1,run-1,grey,2024-04-25_14h46.00.804,VDT,2023.2.3,119.75225985230969,2024-04-25 14h49.21.573475 +0200,
./images_beh/Sphere_CW-1.5_BG-grey_stim-white.png,0,73,73,73,76.1356424309779,,,,,,,,,,76.08835478598485,76.16302925499622,76.16302925499622,76.91374667198397,76.91374667198397,77.16736480599502,None,0,,,77.16083218995482,77.16083218995482,sub-003,ses-main-stim-z-1,run-1,grey,2024-04-25_14h46.00.804,VDT,2023.2.3,119.75225985230969,2024-04-25 14h49.21.573475 +0200,
./images_beh/Sphere_CCW-1.5_BG-grey_stim-white.png,0,74,74,74,77.21532950899564,,,,,,,,,,77.16809193097288,77.21532950899564,77.21532950899564,77.91216977400472,77.96009847195819,78.09695891896263,None,0,,,,,sub-003,ses-main-stim-z-1,run-1,grey,2024-04-25_14h46.00.804,VDT,2023.2.3,119.75225985230969,2024-04-25 14h49.21.573475 +0200,
./images_beh/Sphere_Ref_BG-grey_stim-white.png,0,75,75,75,78.14329033601098,,,,,,,,,,78.09768390195677,78.16035773098702,78.16035773098702,78.90904646198032,78.90904646198032,79.1170386140002,['space'],0,0.6316654989495873,None,,,sub-003,ses-main-stim-z-1,run-1,grey,2024-04-25_14h46.00.804,VDT,2023.2.3,119.75225985230969,2024-04-25 14h49.21.573475 +0200,
./images_beh/Sphere_CW-1.5_BG-grey_stim-white.png,0,76,76,76,79.16516395297367,,,,,,,,,,79.1180205589626,79.16516395297367,79.16516395297367,79.909089252993,79.909089252993,80.14349251799285,None,0,,,,,sub-003,ses-main-stim-z-1,run-1,grey,2024-04-25_14h46.00.804,VDT,2023.2.3,119.75225985230969,2024-04-25 14h49.21.573475 +0200,
./images_beh/Sphere_CW-1.5_BG-grey_stim-white.png,0,77,77,77,80.19048435095465,,,,,,,,,,80.14462655998068,80.19048435095465,80.19048435095465,80.90853810799308,80.93168671795866,81.10971387400059,None,0,,,,,sub-003,ses-main-stim-z-1,run-1,grey,2024-04-25_14h46.00.804,VDT,2023.2.3,119.75225985230969,2024-04-25 14h49.21.573475 +0200,
./images_beh/Sphere_Ref_BG-grey_stim-white.png,0,78,78,78,81.15698653797153,,,,,,,,,,81.11058169195894,81.16254757996649,81.16254757996649,81.90751057199668,81.90751057199668,82.11610339197796,['space'],0,0.6473420779802836,None,,,sub-003,ses-main-stim-z-1,run-1,grey,2024-04-25_14h46.00.804,VDT,2023.2.3,119.75225985230969,2024-04-25 14h49.21.573475 +0200,
./images_beh/Sphere_CCW-1.5_BG-grey_stim-white.png,0,79,79,79,82.16435885196552,,,,,,,,,,82.11706702498486,82.16435885196552,82.16435885196552,82.90741860598791,82.90741860598791,83.1411930329632,None,0,,,,,sub-003,ses-main-stim-z-1,run-1,grey,2024-04-25_14h46.00.804,VDT,2023.2.3,119.75225985230969,2024-04-25 14h49.21.573475 +0200,
./images_beh/Sphere_CW-1.5_BG-grey_stim-white.png,0,80,80,80,83.18166763696354,,,,,,,,,,83.14210780197755,83.18166763696354,83.18166763696354,83.90716303198133,83.92382708797231,84.09818396298215,None,0,,,,,sub-003,ses-main-stim-z-1,run-1,grey,2024-04-25_14h46.00.804,VDT,2023.2.3,119.75225985230969,2024-04-25 14h49.21.573475 +0200,
./images_beh/Sphere_Ref_BG-grey_stim-white.png,0,81,81,81,84.14305632998003,,,,,,,,,,84.0989261919749,84.16214498097543,84.16214498097543,84.91172983398428,84.9062094539986,85.09744543296983,['space'],0,0.6629986879997887,None,,,sub-003,ses-main-stim-z-1,run-1,grey,2024-04-25_14h46.00.804,VDT,2023.2.3,119.75225985230969,2024-04-25 14h49.21.573475 +0200,
./images_beh/Sphere_CCW-1.5_BG-grey_stim-white.png,0,82,82,82,85.14315259095747,,,,,,,,,,85.09837264497764,85.16198471799726,85.16198471799726,85.91361128998687,85.9061935179634,86.14043717097957,None,0,,,,,sub-003,ses-main-stim-z-1,run-1,grey,2024-04-25_14h46.00.804,VDT,2023.2.3,119.75225985230969,2024-04-25 14h49.21.573475 +0200,
./images_beh/Sphere_CW-1.5_BG-grey_stim-white.png,0,83,83,83,86.18775035999715,,,,,,,,,,86.14141671196558,86.18775035999715,86.18775035999715,86.91281304496806,86.92830631596735,87.07304736296646,None,0,,,,,sub-003,ses-main-stim-z-1,run-1,grey,2024-04-25_14h46.00.804,VDT,2023.2.3,119.75225985230969,2024-04-25 14h49.21.573475 +0200,
./images_beh/Sphere_Ref_BG-grey_stim-white.png,0,84,84,84,87.11944753600983,,,,,,,,,,87.07407584297471,87.16202707198681,87.16202707198681,87.93799293995835,87.90633685997454,88.122810921981,['space'],0,0.5746236089617014,None,,,sub-003,ses-main-stim-z-1,run-1,grey,2024-04-25_14h46.00.804,VDT,2023.2.3,119.75225985230969,2024-04-25 14h49.21.573475 +0200,
./images_beh/Sphere_CCW-1.5_BG-grey_stim-white.png,0,85,85,85,88.17318381497171,,,,,,,,,,88.12434325396316,88.17318381497171,88.17318381497171,88.9128094529733,88.9214094519848,89.15601573098684,None,0,,,,,sub-003,ses-main-stim-z-1,run-1,grey,2024-04-25_14h46.00.804,VDT,2023.2.3,119.75225985230969,2024-04-25 14h49.21.573475 +0200,
./images_beh/Sphere_CCW-1.5_BG-grey_stim-white.png,0,86,86,86,89.20417311199708,,,,,,,,,,89.15687678998802,89.20417311199708,89.20417311199708,89.92388842295622,89.94486557197524,90.12802065099822,None,0,,,,,sub-003,ses-main-stim-z-1,run-1,grey,2024-04-25_14h46.00.804,VDT,2023.2.3,119.75225985230969,2024-04-25 14h49.21.573475 +0200,
./images_beh/Sphere_CCW-1.5_BG-grey_stim-white.png,0,87,87,87,90.17480939399684,,,,,,,,,,90.1286880869884,90.17480939399684,90.17480939399684,90.91147740598535,90.9201779399882,91.10479680000572,None,0,,,,,sub-003,ses-main-stim-z-1,run-1,grey,2024-04-25_14h46.00.804,VDT,2023.2.3,119.75225985230969,2024-04-25 14h49.21.573475 +0200,
./images_beh/Sphere_CW-1.5_BG-grey_stim-white.png,0,88,88,88,91.15045597899007,,,,,,,,,,91.10572160198353,91.17009120096918,91.17009120096918,91.91015094297472,91.91015094297472,92.12160769297043,None,0,,,,,sub-003,ses-main-stim-z-1,run-1,grey,2024-04-25_14h46.00.804,VDT,2023.2.3,119.75225985230969,2024-04-25 14h49.21.573475 +0200,
./images_beh/Sphere_CCW-1.5_BG-grey_stim-white.png,0,89,89,89,92.17024996696273,,,,,,,,,,92.12235467496794,92.17024996696273,92.17024996696273,92.91164101299364,92.91914276499301,93.10380694596097,None,0,,,,,sub-003,ses-main-stim-z-1,run-1,grey,2024-04-25_14h46.00.804,VDT,2023.2.3,119.75225985230969,2024-04-25 14h49.21.573475 +0200,
./images_beh/Sphere_CW-1.5_BG-grey_stim-white.png,0,90,90,90,93.14975534100085,,,,,,,,,,93.10494547395501,93.15485909098061,93.15485909098061,93.90937738900539,93.90213626099285,94.09383629501099,None,0,,,,,sub-003,ses-main-stim-z-1,run-1,grey,2024-04-25_14h46.00.804,VDT,2023.2.3,119.75225985230969,2024-04-25 14h49.21.573475 +0200,
./images_beh/Sphere_CCW-1.5_BG-grey_stim-white.png,0,91,91,91,94.14141381299123,,,,,,,,,,94.09460267896065,94.15825187397422,94.15825187397422,94.92082079098327,94.90511059499113,95.13551906496286,None,0,,,,,sub-003,ses-main-stim-z-1,run-1,grey,2024-04-25_14h46.00.804,VDT,2023.2.3,119.75225985230969,2024-04-25 14h49.21.573475 +0200,
./images_beh/Sphere_CCW-1.5_BG-grey_stim-white.png,0,92,92,92,95.17774590896443,,,,,,,,,,95.13645736296894,95.17774590896443,95.17774590896443,95.90927435498452,95.9249767169822,96.10171268699924,None,0,,,,,sub-003,ses-main-stim-z-1,run-1,grey,2024-04-25_14h46.00.804,VDT,2023.2.3,119.75225985230969,2024-04-25 14h49.21.573475 +0200,
./images_beh/Sphere_Ref_BG-grey_stim-white.png,0,93,93,93,96.14718818996334,,,,,,,,,,96.10292706196196,96.15241811895976,96.15241811895976,96.90857910097111,96.90116497199051,97.0846375739784,['space'],0,0.6169028470176272,None,,,sub-003,ses-main-stim-z-1,run-1,grey,2024-04-25_14h46.00.804,VDT,2023.2.3,119.75225985230969,2024-04-25 14h49.21.573475 +0200,
./images_beh/Sphere_CCW-1.5_BG-grey_stim-white.png,0,94,94,94,97.13114445999963,,,,,,,,,,97.08631595800398,97.1552167040063,97.1552167040063,97.9076915019541,97.90041761699831,98.13700224400964,None,0,,,,,sub-003,ses-main-stim-z-1,run-1,grey,2024-04-25_14h46.00.804,VDT,2023.2.3,119.75225985230969,2024-04-25 14h49.21.573475 +0200,
./images_beh/Sphere_CW-1.5_BG-grey_stim-white.png,0,95,95,95,98.18617477599764,,,,,,,,,,98.13772798300488,98.18617477599764,98.18617477599764,98.90816301899031,98.93262862897245,99.10093891399447,None,0,,,,,sub-003,ses-main-stim-z-1,run-1,grey,2024-04-25_14h46.00.804,VDT,2023.2.3,119.75225985230969,2024-04-25 14h49.21.573475 +0200,
./images_beh/Sphere_CW-1.5_BG-grey_stim-white.png,0,96,96,96,99.14804912998807,,,,,,,,,,99.10193835396785,99.15373939595884,99.15373939595884,99.90558463498019,99.8989503220073,100.10745095799211,None,0,,,,,sub-003,ses-main-stim-z-1,run-1,grey,2024-04-25_14h46.00.804,VDT,2023.2.3,119.75225985230969,2024-04-25 14h49.21.573475 +0200,
./images_beh/Sphere_Ref_BG-grey_stim-white.png,0,97,97,97,100.15619061997859,,,,,,,,,,100.10819378099404,100.16533388401149,100.16533388401149,100.9040415060008,100.9040415060008,101.13264788797824,['space'],0,0.45202557899756357,None,,,sub-003,ses-main-stim-z-1,run-1,grey,2024-04-25_14h46.00.804,VDT,2023.2.3,119.75225985230969,2024-04-25 14h49.21.573475 +0200,
./images_beh/Sphere_CW-1.5_BG-grey_stim-white.png,0,98,98,98,101.18139584100572,,,,,,,,,,101.13411072699819,101.18139584100572,101.18139584100572,101.90659491397673,101.92253380198963,102.1477434769622,None,0,,,,,sub-003,ses-main-stim-z-1,run-1,grey,2024-04-25_14h46.00.804,VDT,2023.2.3,119.75225985230969,2024-04-25 14h49.21.573475 +0200,
./images_beh/Sphere_CCW-1.5_BG-grey_stim-white.png,0,99,99,99,102.18073444697075,,,,,,,,,,102.14845038298517,102.18073444697075,102.18073444697075,102.9057101229555,102.92110996000702,103.10551721497905,None,0,,,,,sub-003,ses-main-stim-z-1,run-1,grey,2024-04-25_14h46.00.804,VDT,2023.2.3,119.75225985230969,2024-04-25 14h49.21.573475 +0200,
./images_beh/Sphere_CCW-1.5_BG-grey_stim-white.png,0,100,100,100,103.15395900595468,,,,,,,,,,103.10625862900633,103.16374494100455,103.16374494100455,103.90375392499845,103.90375392499845,104.11442414997146,None,0,,,,,sub-003,ses-main-stim-z-1,run-1,grey,2024-04-25_14h46.00.804,VDT,2023.2.3,119.75225985230969,2024-04-25 14h49.21.573475 +0200,
./images_beh/Sphere_Ref_BG-grey_stim-white.png,0,101,101,101,104.16123395296745,,,,,,,,,,104.11538027896313,104.16123395296745,104.16123395296745,104.91641638800502,104.91641638800502,105.09624032198917,['space'],0,0.8616037450265139,None,,,sub-003,ses-main-stim-z-1,run-1,grey,2024-04-25_14h46.00.804,VDT,2023.2.3,119.75225985230969,2024-04-25 14h49.21.573475 +0200,
./images_beh/Sphere_CW-1.5_BG-grey_stim-white.png,0,102,102,102,105.13040143897524,,,,,,,,,,105.09695211000508,105.16302124800859,105.16302124800859,105.91259704396361,105.90181426500203,106.10422567796195,None,0,,,,,sub-003,ses-main-stim-z-1,run-1,grey,2024-04-25_14h46.00.804,VDT,2023.2.3,119.75225985230969,2024-04-25 14h49.21.573475 +0200,
./images_beh/Sphere_CCW-1.5_BG-grey_stim-white.png,0,103,103,103,106.15236432396341,,,,,,,,,,106.10495277500013,106.16179465100868,106.16179465100868,106.91204193601152,106.90192063100403,107.09643327997765,None,0,,,,,sub-003,ses-main-stim-z-1,run-1,grey,2024-04-25_14h46.00.804,VDT,2023.2.3,119.75225985230969,2024-04-25 14h49.21.573475 +0200,
./images_beh/Sphere_Ref_BG-grey_stim-white.png,0,104,104,104,107.13946007500635,,,,,,,,,,107.09713672898943,107.1619525399874,107.1619525399874,107.91393202997278,107.91393202997278,108.10357435996411,['space'],0,0.509763929003384,None,,,sub-003,ses-main-stim-z-1,run-1,grey,2024-04-25_14h46.00.804,VDT,2023.2.3,119.75225985230969,2024-04-25 14h49.21.573475 +0200,
./images_beh/Sphere_CCW-1.5_BG-grey_stim-white.png,0,105,105,105,108.15271666500485,,,,,,,,,,108.10475939995376,108.1616036699852,108.1616036699852,108.91079378599534,108.89926087495405,109.12877800496062,None,0,,,,,sub-003,ses-main-stim-z-1,run-1,grey,2024-04-25_14h46.00.804,VDT,2023.2.3,119.75225985230969,2024-04-25 14h49.21.573475 +0200,
./images_beh/Sphere_CW-1.5_BG-grey_stim-white.png,0,106,106,106,109.17674779496156,,,,,,,,,,109.12992792198202,109.17674779496156,109.17674779496156,109.91055781301111,109.91752586700022,110.13501718500629,None,0,,,,,sub-003,ses-main-stim-z-1,run-1,grey,2024-04-25_14h46.00.804,VDT,2023.2.3,119.75225985230969,2024-04-25 14h49.21.573475 +0200,
./images_beh/Sphere_CW-1.5_BG-grey_stim-white.png,0,107,107,107,110.18429789098445,,,,,,,,,,110.1358058580081,110.18429789098445,110.18429789098445,110.91009775397833,110.9267739939969,111.14395857596537,None,0,,,,,sub-003,ses-main-stim-z-1,run-1,grey,2024-04-25_14h46.00.804,VDT,2023.2.3,119.75225985230969,2024-04-25 14h49.21.573475 +0200,
./images_beh/Sphere_CCW-1.5_BG-grey_stim-white.png,0,108,108,108,111.19184698699974,,,,,,,,,,111.14525721897371,111.19184698699974,111.19184698699974,111.909276552964,111.93318160698982,112.11037541198311,None,0,,,,,sub-003,ses-main-stim-z-1,run-1,grey,2024-04-25_14h46.00.804,VDT,2023.2.3,119.75225985230969,2024-04-25 14h49.21.573475 +0200,
./images_beh/Sphere_CCW-1.5_BG-grey_stim-white.png,0,109,109,109,112.15628827095497,,,,,,,,,,112.11126193596283,112.17597604799084,112.17597604799084,112.90884957200615,112.91581896395655,113.11011600896018,None,0,,,,,sub-003,ses-main-stim-z-1,run-1,grey,2024-04-25_14h46.00.804,VDT,2023.2.3,119.75225985230969,2024-04-25 14h49.21.573475 +0200,
./images_beh/Sphere_Ref_BG-grey_stim-white.png,0,110,110,110,113.15594732697355,,,,,,,,,,113.1109299059608,113.17578106396832,113.17578106396832,113.90873105201172,113.9155279219849,114.08259876200464,['space'],0,0.5033058570115827,None,,,sub-003,ses-main-stim-z-1,run-1,grey,2024-04-25_14h46.00.804,VDT,2023.2.3,119.75225985230969,2024-04-25 14h49.21.573475 +0200,
./images_beh/Sphere_CW-1.5_BG-grey_stim-white.png,0,111,111,111,114.13116302801063,,,,,,,,,,114.08358792500803,114.1638024210115,114.1638024210115,114.90780425700359,114.90780425700359,115.09914432896767,None,0,,,,,sub-003,ses-main-stim-z-1,run-1,grey,2024-04-25_14h46.00.804,VDT,2023.2.3,119.75225985230969,2024-04-25 14h49.21.573475 +0200,
./images_beh/Sphere_CW-1.5_BG-grey_stim-white.png,0,112,112,112,115.14901857596124,,,,,,,,,,115.100085035956,115.15769161796197,115.15769161796197,115.914448970987,115.89657730096951,116.15877120097866,None,0,,,116.15762588597136,116.1469326170045,sub-003,ses-main-stim-z-1,run-1,grey,2024-04-25_14h46.00.804,VDT,2023.2.3,119.75225985230969,2024-04-25 14h49.21.573475 +0200,
./images_beh/Sphere_Ref_BG-grey_stim-white.png,0,113,113,113,116.20793874096125,,,,,,,,,,116.15970991400536,116.20793874096125,116.20793874096125,116.9062748469878,116.95668698899681,117.14107757800957,['space'],0,0.6797851489973255,None,,,sub-003,ses-main-stim-z-1,run-1,grey,2024-04-25_14h46.00.804,VDT,2023.2.3,119.75225985230969,2024-04-25 14h49.21.573475 +0200,
./images_beh/Sphere_CCW-1.5_BG-grey_stim-white.png,0,114,114,114,117.18597905297065,,,,,,,,,,117.14240439998684,117.18597905297065,117.18597905297065,117.91390656097792,117.92970141395926,118.14592571696267,None,0,,,,,sub-003,ses-main-stim-z-1,run-1,grey,2024-04-25_14h46.00.804,VDT,2023.2.3,119.75225985230969,2024-04-25 14h49.21.573475 +0200,
./images_beh/Sphere_CCW-1.5_BG-grey_stim-white.png,0,115,115,115,118.18840761197498,,,,,,,,,,118.1465442829649,118.18840761197498,118.18840761197498,118.91362552298233,118.92933944496326,119.10694995796075,None,0,,,,,sub-003,ses-main-stim-z-1,run-1,grey,2024-04-25_14h46.00.804,VDT,2023.2.3,119.75225985230969,2024-04-25 14h49.21.573475 +0200,
./images_beh/Sphere_CCW-1.5_BG-grey_stim-white.png,0,116,116,116,119.152720019978,,,,,,,,,,119.10764023696538,119.17230929096695,119.17230929096695,119.91225130396197,119.91225130396197,120.09585968597094,None,0,,,,,sub-003,ses-main-stim-z-1,run-1,grey,2024-04-25_14h46.00.804,VDT,2023.2.3,119.75225985230969,2024-04-25 14h49.21.573475 +0200,
./images_beh/Sphere_CCW-1.5_BG-grey_stim-white.png,0,117,117,117,120.14160381397232,,,,,,,,,,120.09659461700357,120.16070201195544,120.16070201195544,120.91088441299507,120.9046945789596,121.09609997901134,None,0,,,,,sub-003,ses-main-stim-z-1,run-1,grey,2024-04-25_14h46.00.804,VDT,2023.2.3,119.75225985230969,2024-04-25 14h49.21.573475 +0200,
./images_beh/Sphere_Ref_BG-grey_stim-white.png,0,118,118,118,121.14580363896675,,,,,,,,,,121.09682098100893,121.16030513000442,121.16030513000442,121.91134150396101,121.91134150396101,122.12176679098047,['space'],0,0.640193592000287,None,,,sub-003,ses-main-stim-z-1,run-1,grey,2024-04-25_14h46.00.804,VDT,2023.2.3,119.75225985230969,2024-04-25 14h49.21.573475 +0200,
./images_beh/Sphere_CW-1.5_BG-grey_stim-white.png,0,119,119,119,122.16833570797462,,,,,,,,,,122.12277307000477,122.16833570797462,122.16833570797462,122.91152660199441,122.91152660199441,123.12878198298858,None,0,,,,,sub-003,ses-main-stim-z-1,run-1,grey,2024-04-25_14h46.00.804,VDT,2023.2.3,119.75225985230969,2024-04-25 14h49.21.573475 +0200,
./images_beh/Sphere_CW-1.5_BG-grey_stim-white.png,0,120,120,120,123.1770010459586,,,,,,,,,,123.12936025200179,123.1770010459586,123.1770010459586,123.9105813849601,123.9202763409703,124.14359741000226,None,0,,,,,sub-003,ses-main-stim-z-1,run-1,grey,2024-04-25_14h46.00.804,VDT,2023.2.3,119.75225985230969,2024-04-25 14h49.21.573475 +0200,
./images_beh/Sphere_CW-1.5_BG-grey_stim-white.png,0,121,121,121,124.1883184039616,,,,,,,,,,124.14418344496517,124.1883184039616,124.1883184039616,124.91099229699466,124.93648484395817,125.12047509697732,None,0,,,,,sub-003,ses-main-stim-z-1,run-1,grey,2024-04-25_14h46.00.804,VDT,2023.2.3,119.75225985230969,2024-04-25 14h49.21.573475 +0200,
./images_beh/Sphere_CCW-1.5_BG-grey_stim-white.png,0,122,122,122,125.16743045998737,,,,,,,,,,125.12142939196201,125.16743045998737,125.16743045998737,125.90927069896134,125.90927069896134,126.09335615398595,None,0,,,,,sub-003,ses-main-stim-z-1,run-1,grey,2024-04-25_14h46.00.804,VDT,2023.2.3,119.75225985230969,2024-04-25 14h49.21.573475 +0200,
./images_beh/Sphere_Ref_BG-grey_stim-white.png,0,123,123,123,126.13767829100834,,,,,,,,,,126.09396448096959,126.15791858598823,126.15791858598823,126.90764766995562,126.90153079398442,127.15764538996154,['space'],0,0.6179377119988203,None,127.15173093799967,127.15173093799967,sub-003,ses-main-stim-z-1,run-1,grey,2024-04-25_14h46.00.804,VDT,2023.2.3,119.75225985230969,2024-04-25 14h49.21.573475 +0200,
./images_beh/Sphere_CW-1.5_BG-grey_stim-white.png,0,124,124,124,127.20428824197734,,,,,,,,,,127.1586156259873,127.20428824197734,127.20428824197734,127.90943279996281,127.9511523959809,128.1190657299594,None,0,,,,,sub-003,ses-main-stim-z-1,run-1,grey,2024-04-25_14h46.00.804,VDT,2023.2.3,119.75225985230969,2024-04-25 14h49.21.573475 +0200,
./images_beh/Sphere_CW-1.5_BG-grey_stim-white.png,0,125,125,125,128.16423670499353,,,,,,,,,,128.12012370600132,128.16423670499353,128.16423670499353,128.9073640179704,128.9073640179704,129.14208240096923,None,0,,,,,sub-003,ses-main-stim-z-1,run-1,grey,2024-04-25_14h46.00.804,VDT,2023.2.3,119.75225985230969,2024-04-25 14h49.21.573475 +0200,
./images_beh/Sphere_CCW-1.5_BG-grey_stim-white.png,0,126,126,126,129.190728121961,,,,,,,,,,129.1428258100059,129.190728121961,129.190728121961,129.920555263001,129.94142915599514,130.117661294993,None,0,,,,,sub-003,ses-main-stim-z-1,run-1,grey,2024-04-25_14h46.00.804,VDT,2023.2.3,119.75225985230969,2024-04-25 14h49.21.573475 +0200,
./images_beh/Sphere_CCW-1.5_BG-grey_stim-white.png,0,127,127,127,130.1619442749652,,,,,,,,,,130.1185013129725,130.1619442749652,130.1619442749652,130.90739562100498,130.90739562100498,131.11755676497705,None,0,,,,,sub-003,ses-main-stim-z-1,run-1,grey,2024-04-25_14h46.00.804,VDT,2023.2.3,119.75225985230969,2024-04-25 14h49.21.573475 +0200,
./images_beh/Sphere_CCW-1.5_BG-grey_stim-white.png,0,128,128,128,131.16651514696423,,,,,,,,,,131.11841630295385,131.16651514696423,131.16651514696423,131.90583487797994,131.90583487797994,132.1501777889789,None,0,,,132.14914805599255,,sub-003,ses-main-stim-z-1,run-1,grey,2024-04-25_14h46.00.804,VDT,2023.2.3,119.75225985230969,2024-04-25 14h49.21.573475 +0200,
./images_beh/Sphere_Ref_BG-grey_stim-white.png,0,129,129,129,132.19540890801,,,,,,,,,,132.15110630297568,132.19540890801,132.19540890801,132.90550378197804,132.93788052001037,133.10605707898503,['space'],0,0.51575599698117,None,,,sub-003,ses-main-stim-z-1,run-1,grey,2024-04-25_14h46.00.804,VDT,2023.2.3,119.75225985230969,2024-04-25 14h49.21.573475 +0200,
./images_beh/Sphere_CW-1.5_BG-grey_stim-white.png,0,130,130,130,133.15358365001157,,,,,,,,,,133.10701632796554,133.16496602096595,133.16496602096595,133.90512965398375,133.90512965398375,134.1663231420098,None,0,,,134.16495882999152,134.16495882999152,sub-003,ses-main-stim-z-1,run-1,grey,2024-04-25_14h46.00.804,VDT,2023.2.3,119.75225985230969,2024-04-25 14h49.21.573475 +0200,
./images_beh/Sphere_CW-1.5_BG-grey_stim-white.png,0,131,131,131,134.21231047896435,,,,,,,,,,134.16701709199697,134.21231047896435,134.21231047896435,134.90391733299475,134.95324255496962,135.13185118697584,None,0,,,,,sub-003,ses-main-stim-z-1,run-1,grey,2024-04-25_14h46.00.804,VDT,2023.2.3,119.75225985230969,2024-04-25 14h49.21.573475 +0200,
./images_beh/Sphere_CCW-1.5_BG-grey_stim-white.png,0,132,132,132,135.17709357396234,,,,,,,,,,135.13289233896649,135.17709357396234,135.17709357396234,135.90409266098868,135.91946227796143,136.13127843098482,None,0,,,,,sub-003,ses-main-stim-z-1,run-1,grey,2024-04-25_14h46.00.804,VDT,2023.2.3,119.75225985230969,2024-04-25 14h49.21.573475 +0200,
./images_beh/Sphere_CW-1.5_BG-grey_stim-white.png,0,133,133,133,136.1742775599705,,,,,,,,,,136.13204778695945,136.1742775599705,136.1742775599705,136.90450194000732,136.91989696596283,137.14751646196237,None,0,,,,,sub-003,ses-main-stim-z-1,run-1,grey,2024-04-25_14h46.00.804,VDT,2023.2.3,119.75225985230969,2024-04-25 14h49.21.573475 +0200,
./images_beh/Sphere_Ref_BG-grey_stim-white.png,0,134,134,134,137.1951934049721,,,,,,,,,,137.14866743795574,137.1951934049721,137.1951934049721,137.9125276359846,137.93495236895978,138.09716604399728,['space'],0,0.6768052100087516,None,,,sub-003,ses-main-stim-z-1,run-1,grey,2024-04-25_14h46.00.804,VDT,2023.2.3,119.75225985230969,2024-04-25 14h49.21.573475 +0200,
./images_beh/Sphere_CCW-1.5_BG-grey_stim-white.png,0,135,135,135,138.14385095698526,,,,,,,,,,138.09847685700515,138.1623952689697,138.1623952689697,138.91211146797286,138.9003724239883,139.09669491200475,None,0,,,,,sub-003,ses-main-stim-z-1,run-1,grey,2024-04-25_14h46.00.804,VDT,2023.2.3,119.75225985230969,2024-04-25 14h49.21.573475 +0200,
./images_beh/Sphere_CW-1.5_BG-grey_stim-white.png,0,136,136,136,139.1435695089749,,,,,,,,,,139.0976869389997,139.1621744039585,139.1621744039585,139.91202880698256,139.90176413400332,140.0694510929752,None,0,,,,,sub-003,ses-main-stim-z-1,run-1,grey,2024-04-25_14h46.00.804,VDT,2023.2.3,119.75225985230969,2024-04-25 14h49.21.573475 +0200,
./images_beh/Sphere_Ref_BG-grey_stim-white.png,0,137,137,137,140.11499068397097,,,,,,,,,,140.07020077196648,140.16218582500005,140.16218582500005,140.91105707798852,140.89946239296114,141.18030936998548,['space'],0,0.6219913260429166,None,141.1500300259795,141.1500300259795,sub-003,ses-main-stim-z-1,run-1,grey,2024-04-25_14h46.00.804,VDT,2023.2.3,119.75225985230969,2024-04-25 14h49.21.573475 +0200,
./images_beh/Sphere_CW-1.5_BG-grey_stim-white.png,0,138,138,138,141.22436978999758,,,,,,,,,,141.18107277801028,141.22436978999758,141.22436978999758,141.91076518996852,141.96677328000078,142.11235631699674,None,0,,,,,sub-003,ses-main-stim-z-1,run-1,grey,2024-04-25_14h46.00.804,VDT,2023.2.3,119.75225985230969,2024-04-25 14h49.21.573475 +0200,
./images_beh/Sphere_CW-1.5_BG-grey_stim-white.png,0,139,139,139,142.1595914940117,,,,,,,,,,142.11335014295764,142.165240436967,142.165240436967,142.91060031100642,142.91060031100642,143.11164729500888,None,0,,,,,sub-003,ses-main-stim-z-1,run-1,grey,2024-04-25_14h46.00.804,VDT,2023.2.3,119.75225985230969,2024-04-25 14h49.21.573475 +0200,
./images_beh/Sphere_CCW-1.5_BG-grey_stim-white.png,0,140,140,140,143.15896835300373,,,,,,,,,,143.1124324380071,143.16474042995833,143.16474042995833,143.91009701095754,143.91009701095754,144.1445278369938,None,0,,,,,sub-003,ses-main-stim-z-1,run-1,grey,2024-04-25_14h46.00.804,VDT,2023.2.3,119.75225985230969,2024-04-25 14h49.21.573475 +0200,
./images_beh/Sphere_Ref_BG-grey_stim-white.png,0,141,141,141,144.19503372296458,,,,,,,,,,144.1453062960063,144.19503372296458,144.19503372296458,144.92617113899905,144.94273534795502,145.113089758961,None,0,,,,,sub-003,ses-main-stim-z-1,run-1,grey,2024-04-25_14h46.00.804,VDT,2023.2.3,119.75225985230969,2024-04-25 14h49.21.573475 +0200,
./images_beh/Sphere_CW-1.5_BG-grey_stim-white.png,0,142,142,142,145.16250164998928,,,,,,,,,,145.11384695296874,145.17576261999784,145.17576261999784,145.90903507301118,145.91617639100878,146.13363374699838,None,0,,,,,sub-003,ses-main-stim-z-1,run-1,grey,2024-04-25_14h46.00.804,VDT,2023.2.3,119.75225985230969,2024-04-25 14h49.21.573475 +0200,
./images_beh/Sphere_CCW-1.5_BG-grey_stim-white.png,0,143,143,143,146.1841155049624,,,,,,,,,,146.13451381400228,146.1841155049624,146.1841155049624,146.90834247897146,146.9312889080029,147.10990290995687,None,0,,,,,sub-003,ses-main-stim-z-1,run-1,grey,2024-04-25_14h46.00.804,VDT,2023.2.3,119.75225985230969,2024-04-25 14h49.21.573475 +0200,
./images_beh/Sphere_CW-1.5_BG-grey_stim-white.png,0,144,144,144,147.15688059898093,,,,,,,,,,147.11066473799292,147.1624724160065,147.1624724160065,147.90760605497053,147.90760605497053,148.10888839297695,None,0,,,,,sub-003,ses-main-stim-z-1,run-1,grey,2024-04-25_14h46.00.804,VDT,2023.2.3,119.75225985230969,2024-04-25 14h49.21.573475 +0200,
./images_beh/Sphere_CCW-1.5_BG-grey_stim-white.png,0,145,145,145,148.15322771598585,,,,,,,,,,148.10953020100715,148.15811330499128,148.15811330499128,148.9145489059738,148.89588193199597,149.14794358698418,None,0,,,,,sub-003,ses-main-stim-z-1,run-1,grey,2024-04-25_14h46.00.804,VDT,2023.2.3,119.75225985230969,2024-04-25 14h49.21.573475 +0200,
./images_beh/Sphere_Ref_BG-grey_stim-white.png,0,146,146,146,149.19730512297247,,,,,,,,,,149.14865588000976,149.19730512297247,149.19730512297247,149.90672328596702,149.94026940898038,150.107361175993,None,0,,,,,sub-003,ses-main-stim-z-1,run-1,grey,2024-04-25_14h46.00.804,VDT,2023.2.3,119.75225985230969,2024-04-25 14h49.21.573475 +0200,
./images_beh/Sphere_CW-1.5_BG-grey_stim-white.png,0,147,147,147,150.1522405759897,,,,,,,,,,150.1082034179708,150.15682800096693,150.15682800096693,150.91295073798392,150.89569954999024,151.11272862000624,None,0,,,,,sub-003,ses-main-stim-z-1,run-1,grey,2024-04-25_14h46.00.804,VDT,2023.2.3,119.75225985230969,2024-04-25 14h49.21.573475 +0200,
./images_beh/Sphere_CCW-1.5_BG-grey_stim-white.png,0,148,148,148,151.15922180796042,,,,,,,,,,151.11346396896988,151.17258763400605,151.17258763400605,151.91231060400605,151.91231060400605,152.1125390609959,None,0,,,,,sub-003,ses-main-stim-z-1,run-1,grey,2024-04-25_14h46.00.804,VDT,2023.2.3,119.75225985230969,2024-04-25 14h49.21.573475 +0200,
./images_beh/Sphere_CCW-1.5_BG-grey_stim-white.png,0,149,149,149,152.15830168797402,,,,,,,,,,152.11329075298272,152.17197422200115,152.17197422200115,152.9121738479589,152.9121738479589,153.12301868700888,None,0,,,,,sub-003,ses-main-stim-z-1,run-1,grey,2024-04-25_14h46.00.804,VDT,2023.2.3,119.75225985230969,2024-04-25 14h49.21.573475 +0200,
./images_beh/Sphere_Ref_BG-grey_stim-white.png,0,150,150,150,153.1682284869603,,,,,,,,,,153.12386280397186,153.1682284869603,153.1682284869603,153.90981618396472,153.90981618396472,154.08870255196234,['space'],0,0.521089893009048,None,,,sub-003,ses-main-stim-z-1,run-1,grey,2024-04-25_14h46.00.804,VDT,2023.2.3,119.75225985230969,2024-04-25 14h49.21.573475 +0200,
./images_beh/Sphere_CW-1.5_BG-grey_stim-white.png,0,151,151,151,154.1369126389618,,,,,,,,,,154.09023576200707,154.15970561798895,154.15970561798895,154.91110505798133,154.90432230895385,155.12396506097866,None,0,,,,,sub-003,ses-main-stim-z-1,run-1,grey,2024-04-25_14h46.00.804,VDT,2023.2.3,119.75225985230969,2024-04-25 14h49.21.573475 +0200,
./images_beh/Sphere_CW-1.5_BG-grey_stim-white.png,0,152,152,152,155.17361299495678,,,,,,,,,,155.1246976099792,155.17361299495678,155.17361299495678,155.91231051000068,155.920364591002,156.12392262695357,None,0,,,,,sub-003,ses-main-stim-z-1,run-1,grey,2024-04-25_14h46.00.804,VDT,2023.2.3,119.75225985230969,2024-04-25 14h49.21.573475 +0200,
./images_beh/Sphere_Ref_BG-grey_stim-white.png,0,153,153,153,156.171655173006,,,,,,,,,,156.12467658799142,156.171655173006,156.171655173006,156.9225127119571,156.9225127119571,157.12368992797565,['space'],0,0.49158962100045756,None,,,sub-003,ses-main-stim-z-1,run-1,grey,2024-04-25_14h46.00.804,VDT,2023.2.3,119.75225985230969,2024-04-25 14h49.21.573475 +0200,
./images_beh/Sphere_CW-1.5_BG-grey_stim-white.png,0,154,154,154,157.1721750239958,,,,,,,,,,157.1246790519799,157.1721750239958,157.1721750239958,157.91035993298283,157.91956337797455,158.1442238049931,None,0,,,,,sub-003,ses-main-stim-z-1,run-1,grey,2024-04-25_14h46.00.804,VDT,2023.2.3,119.75225985230969,2024-04-25 14h49.21.573475 +0200,
./images_beh/Sphere_CCW-1.5_BG-grey_stim-white.png,0,155,155,155,158.19311491498956,,,,,,,,,,158.14495587797137,158.19311491498956,158.19311491498956,158.90960169798927,158.9354779839632,159.07623126800172,None,0,,,,,sub-003,ses-main-stim-z-1,run-1,grey,2024-04-25_14h46.00.804,VDT,2023.2.3,119.75225985230969,2024-04-25 14h49.21.573475 +0200,
./images_beh/Sphere_CCW-1.5_BG-grey_stim-white.png,0,156,156,156,159.15833553596167,,,,,,,,,,159.07709720998537,159.16841557598673,159.16841557598673,159.92199462797726,159.92199462797726,160.1102489879704,None,0,,,,,sub-003,ses-main-stim-z-1,run-1,grey,2024-04-25_14h46.00.804,VDT,2023.2.3,119.75225985230969,2024-04-25 14h49.21.573475 +0200,
./images_beh/Sphere_CCW-1.5_BG-grey_stim-white.png,0,157,157,157,160.15571910201106,,,,,,,,,,160.1109926449717,160.1680567949661,160.1680567949661,160.9086592560052,160.9086592560052,161.119552825985,None,0,,,,,sub-003,ses-main-stim-z-1,run-1,grey,2024-04-25_14h46.00.804,VDT,2023.2.3,119.75225985230969,2024-04-25 14h49.21.573475 +0200,
./images_beh/Sphere_CCW-1.5_BG-grey_stim-white.png,0,158,158,158,161.16931894095615,,,,,,,,,,161.1202974439948,161.16931894095615,161.16931894095615,161.9090887689963,161.91758710501017,162.14190457598306,None,0,,,,,sub-003,ses-main-stim-z-1,run-1,grey,2024-04-25_14h46.00.804,VDT,2023.2.3,119.75225985230969,2024-04-25 14h49.21.573475 +0200,
./images_beh/Sphere_Ref_BG-grey_stim-white.png,0,159,159,159,162.1948949919897,,,,,,,,,,162.14267544297036,162.1948949919897,162.1948949919897,162.9078798450064,162.94001923396718,163.10446473699994,['space'],0,0.5970099639962427,None,,,sub-003,ses-main-stim-z-1,run-1,grey,2024-04-25_14h46.00.804,VDT,2023.2.3,119.75225985230969,2024-04-25 14h49.21.573475 +0200,
./images_beh/Sphere_CW-1.5_BG-grey_stim-white.png,0,160,160,160,163.15199650696013,,,,,,,,,,163.10543618298834,163.1665907879942,163.1665907879942,163.90768253197894,163.90768253197894,164.09032211796148,None,0,,,,,sub-003,ses-main-stim-z-1,run-1,grey,2024-04-25_14h46.00.804,VDT,2023.2.3,119.75225985230969,2024-04-25 14h49.21.573475 +0200,
./images_beh/Sphere_CW-1.5_BG-grey_stim-white.png,0,161,161,161,164.13566218898632,,,,,,,,,,164.09091214998625,164.15489959000843,164.15489959000843,164.9052660589805,164.8990911389701,165.08940038096625,None,0,,,,,sub-003,ses-main-stim-z-1,run-1,grey,2024-04-25_14h46.00.804,VDT,2023.2.3,119.75225985230969,2024-04-25 14h49.21.573475 +0200,
./images_beh/Sphere_CW-1.5_BG-grey_stim-white.png,0,162,162,162,165.13161300396314,,,,,,,,,,165.09001453599194,165.15557154396083,165.15557154396083,165.91558778600302,165.90183702495415,166.1237825069693,None,0,,,,,sub-003,ses-main-stim-z-1,run-1,grey,2024-04-25_14h46.00.804,VDT,2023.2.3,119.75225985230969,2024-04-25 14h49.21.573475 +0200,
./images_beh/Sphere_CCW-1.5_BG-grey_stim-white.png,0,163,163,163,166.17319772095652,,,,,,,,,,166.12465150596108,166.17319772095652,166.17319772095652,166.90594613499707,166.91477549198316,167.082635261002,None,0,,,,,sub-003,ses-main-stim-z-1,run-1,grey,2024-04-25_14h46.00.804,VDT,2023.2.3,119.75225985230969,2024-04-25 14h49.21.573475 +0200,
./images_beh/Sphere_CW-1.5_BG-grey_stim-white.png,0,164,164,164,167.13192549999803,,,,,,,,,,167.08383289695485,167.1538464470068,167.1538464470068,167.90433210198535,167.89776596298907,168.1223840820021,['space'],0,0.5250849479925819,None,,,sub-003,ses-main-stim-z-1,run-1,grey,2024-04-25_14h46.00.804,VDT,2023.2.3,119.75225985230969,2024-04-25 14h49.21.573475 +0200,
./images_beh/Sphere_Ref_BG-grey_stim-white.png,0,165,165,165,168.16989261296112,,,,,,,,,,168.12335611495655,168.16989261296112,168.16989261296112,168.90382626495557,168.91361758095445,169.08413221896626,None,0,,,,,sub-003,ses-main-stim-z-1,run-1,grey,2024-04-25_14h46.00.804,VDT,2023.2.3,119.75225985230969,2024-04-25 14h49.21.573475 +0200,
./images_beh/Sphere_CW-1.5_BG-grey_stim-white.png,0,166,166,166,169.13226636097534,,,,,,,,,,169.08489040395943,169.15237707295455,169.15237707295455,169.90382779296488,169.89689408795675,170.12014533201,None,0,,,,,sub-003,ses-main-stim-z-1,run-1,grey,2024-04-25_14h46.00.804,VDT,2023.2.3,119.75225985230969,2024-04-25 14h49.21.573475 +0200,
./images_beh/Sphere_CCW-1.5_BG-grey_stim-white.png,0,167,167,167,170.16374430496944,,,,,,,,,,170.1206383180106,170.16374430496944,170.16374430496944,170.9136423029704,170.90192753099836,171.1206207649666,None,0,,,,,sub-003,ses-main-stim-z-1,run-1,grey,2024-04-25_14h46.00.804,VDT,2023.2.3,119.75225985230969,2024-04-25 14h49.21.573475 +0200,
./images_beh/Sphere_CCW-1.5_BG-grey_stim-white.png,0,168,168,168,171.16656687000068,,,,,,,,,,171.12120717199286,171.16656687000068,171.16656687000068,171.9152171529713,171.93179968296317,172.0801942590042,None,0,,,,,sub-003,ses-main-stim-z-1,run-1,grey,2024-04-25_14h46.00.804,VDT,2023.2.3,119.75225985230969,2024-04-25 14h49.21.573475 +0200,
./images_beh/Sphere_Ref_BG-grey_stim-white.png,0,169,169,169,172.12694081000518,,,,,,,,,,172.08114771096734,172.16223087598337,172.16223087598337,172.91458123998018,172.90079888200853,173.13682712399168,None,0,,,,,sub-003,ses-main-stim-z-1,run-1,grey,2024-04-25_14h46.00.804,VDT,2023.2.3,119.75225985230969,2024-04-25 14h49.21.573475 +0200,
./images_beh/Sphere_CW-1.5_BG-grey_stim-white.png,0,170,170,170,173.1862286090036,,,,,,,,,,173.13754998100922,173.1862286090036,173.1862286090036,173.91393549897475,173.94747051596642,174.14565979200415,None,0,,,,,sub-003,ses-main-stim-z-1,run-1,grey,2024-04-25_14h46.00.804,VDT,2023.2.3,119.75225985230969,2024-04-25 14h49.21.573475 +0200,
./images_beh/Sphere_CCW-1.5_BG-grey_stim-white.png,0,171,171,171,174.1967488549999,,,,,,,,,,174.14866294700187,174.1967488549999,174.1967488549999,174.911183358985,174.94423001399264,175.10201434401097,None,0,,,,,sub-003,ses-main-stim-z-1,run-1,grey,2024-04-25_14h46.00.804,VDT,2023.2.3,119.75225985230969,2024-04-25 14h49.21.573475 +0200,
./images_beh/Sphere_CW-1.5_BG-grey_stim-white.png,0,172,172,172,175.14731358498102,,,,,,,,,,175.10286145797,175.16082334396197,175.16082334396197,175.91048051597318,175.90010015899315,176.10157345997868,None,0,,,,,sub-003,ses-main-stim-z-1,run-1,grey,2024-04-25_14h46.00.804,VDT,2023.2.3,119.75225985230969,2024-04-25 14h49.21.573475 +0200,
./images_beh/Sphere_Ref_BG-grey_stim-white.png,0,173,173,173,176.14874266297556,,,,,,,,,,176.1026260110084,176.16023645695532,176.16023645695532,176.90974860196002,176.89865852397634,177.08038215496344,['space'],0,0.44854904303792864,None,,,sub-003,ses-main-stim-z-1,run-1,grey,2024-04-25_14h46.00.804,VDT,2023.2.3,119.75225985230969,2024-04-25 14h49.21.573475 +0200,
./images_beh/Sphere_CW-1.5_BG-grey_stim-white.png,0,174,174,174,177.12604602100328,,,,,,,,,,177.0813461599755,177.1596347609884,177.1596347609884,177.91757150396006,177.90951062296517,178.07679644296877,None,0,,,,,sub-003,ses-main-stim-z-1,run-1,grey,2024-04-25_14h46.00.804,VDT,2023.2.3,119.75225985230969,2024-04-25 14h49.21.573475 +0200,
./images_beh/Sphere_CW-1.5_BG-grey_stim-white.png,0,175,175,175,178.1213397909887,,,,,,,,,,178.07767257496016,178.1591098299832,178.1591098299832,178.9116735740099,178.89793984696735,179.1162794189877,None,0,,,,,sub-003,ses-main-stim-z-1,run-1,grey,2024-04-25_14h46.00.804,VDT,2023.2.3,119.75225985230969,2024-04-25 14h49.21.573475 +0200,
./images_beh/Sphere_Ref_BG-grey_stim-white.png,0,176,176,176,179.16296887298813,,,,,,,,,,179.1170214129961,179.16296887298813,179.16296887298813,179.90833072096575,179.90833072096575,180.1148668329697,['space'],0,0.4772003679536283,None,,,sub-003,ses-main-stim-z-1,run-1,grey,2024-04-25_14h46.00.804,VDT,2023.2.3,119.75225985230969,2024-04-25 14h49.21.573475 +0200,
./images_beh/Sphere_CCW-1.5_BG-grey_stim-white.png,0,177,177,177,180.1553158069728,,,,,,,,,,180.11551535100443,180.1553158069728,180.1553158069728,180.9137983719702,180.896293769998,181.10848891496425,None,0,,,,,sub-003,ses-main-stim-z-1,run-1,grey,2024-04-25_14h46.00.804,VDT,2023.2.3,119.75225985230969,2024-04-25 14h49.21.573475 +0200,
./images_beh/Sphere_CCW-1.5_BG-grey_stim-white.png,0,178,178,178,181.1551502069924,,,,,,,,,,181.10938239499228,181.16034411999863,181.16034411999863,181.90727500995854,181.90727500995854,182.14730691997102,None,0,,,182.1464919569553,,sub-003,ses-main-stim-z-1,run-1,grey,2024-04-25_14h46.00.804,VDT,2023.2.3,119.75225985230969,2024-04-25 14h49.21.573475 +0200,
./images_beh/Sphere_CCW-1.5_BG-grey_stim-white.png,0,179,179,179,182.19483130599838,,,,,,,,,,182.14806301798671,182.19483130599838,182.19483130599838,182.90649671800202,182.93994925898733,183.0973562329891,None,0,,,,,sub-003,ses-main-stim-z-1,run-1,grey,2024-04-25_14h46.00.804,VDT,2023.2.3,119.75225985230969,2024-04-25 14h49.21.573475 +0200,
./images_beh/Sphere_CCW-1.5_BG-grey_stim-white.png,0,180,180,180,183.14260348700918,,,,,,,,,,183.09797054697992,183.16253264900297,183.16253264900297,183.9127291769837,183.90604646195425,184.10745811800007,None,0,,,,,sub-003,ses-main-stim-z-1,run-1,grey,2024-04-25_14h46.00.804,VDT,2023.2.3,119.75225985230969,2024-04-25 14h49.21.573475 +0200,
./images_beh/Sphere_CW-1.5_BG-grey_stim-white.png,0,181,181,181,184.15351963997819,,,,,,,,,,184.10867608798435,184.15863191598328,184.15863191598328,184.91110846196534,184.90527556900633,185.12992466700962,['space'],0,0.4988026520004496,None,,,sub-003,ses-main-stim-z-1,run-1,grey,2024-04-25_14h46.00.804,VDT,2023.2.3,119.75225985230969,2024-04-25 14h49.21.573475 +0200,
./images_beh/Sphere_CW-1.5_BG-grey_stim-white.png,0,182,182,182,185.17564355698414,,,,,,,,,,185.13069478195393,185.17564355698414,185.17564355698414,185.9125736989663,185.92121715500252,186.10575856198557,None,0,,,,,sub-003,ses-main-stim-z-1,run-1,grey,2024-04-25_14h46.00.804,VDT,2023.2.3,119.75225985230969,2024-04-25 14h49.21.573475 +0200,
./images_beh/Sphere_Ref_BG-grey_stim-white.png,0,183,183,183,186.15211522596655,,,,,,,,,,186.10725770896534,186.15779468498658,186.15779468498658,186.91137598000932,186.90448120696237,187.07205371797318,['space'],0,0.5626035330351442,None,,,sub-003,ses-main-stim-z-1,run-1,grey,2024-04-25_14h46.00.804,VDT,2023.2.3,119.75225985230969,2024-04-25 14h49.21.573475 +0200,
./images_beh/Sphere_CW-1.5_BG-grey_stim-white.png,0,184,184,184,187.11838275496848,,,,,,,,,,187.0735018849955,187.16053000401007,187.16053000401007,187.91159094596514,187.90464034996694,188.12148962297942,None,0,,,,,sub-003,ses-main-stim-z-1,run-1,grey,2024-04-25_14h46.00.804,VDT,2023.2.3,119.75225985230969,2024-04-25 14h49.21.573475 +0200,
./images_beh/Sphere_CCW-1.5_BG-grey_stim-white.png,0,185,185,185,188.1713778669946,,,,,,,,,,188.12249066797085,188.1713778669946,188.1713778669946,188.91177454497665,188.91177454497665,189.1910217149998,None,0,,,189.17319095798302,189.17319095798302,sub-003,ses-main-stim-z-1,run-1,grey,2024-04-25_14h46.00.804,VDT,2023.2.3,119.75225985230969,2024-04-25 14h49.21.573475 +0200,
./images_beh/Sphere_Ref_BG-grey_stim-white.png,0,186,186,186,189.2393912670086,,,,,,,,,,189.1917519469862,189.2393912670086,189.2393912670086,189.91126736695878,189.98670124995988,190.16032236098545,['space'],0,0.5928115749848075,None,190.1595340789645,,sub-003,ses-main-stim-z-1,run-1,grey,2024-04-25_14h46.00.804,VDT,2023.2.3,119.75225985230969,2024-04-25 14h49.21.573475 +0200,
./images_beh/Sphere_CW-1.5_BG-grey_stim-white.png,0,187,187,187,190.20889028901001,,,,,,,,,,190.1612930019619,190.20889028901001,190.20889028901001,190.90971877495758,190.95265816897154,191.14425687096082,None,0,,,,,sub-003,ses-main-stim-z-1,run-1,grey,2024-04-25_14h46.00.804,VDT,2023.2.3,119.75225985230969,2024-04-25 14h49.21.573475 +0200,
./images_beh/Sphere_CCW-1.5_BG-grey_stim-white.png,0,188,188,188,191.19362262199866,,,,,,,,,,191.14497502701124,191.19362262199866,191.19362262199866,191.91913363296771,191.93541189300595,192.08887704799417,None,0,,,,,sub-003,ses-main-stim-z-1,run-1,grey,2024-04-25_14h46.00.804,VDT,2023.2.3,119.75225985230969,2024-04-25 14h49.21.573475 +0200,
./images_beh/Sphere_Ref_BG-grey_stim-white.png,0,189,189,189,192.1361584509723,,,,,,,,,,192.0896136899828,192.15871110395528,192.15871110395528,192.9088234839728,192.90169312397484,193.08581499598222,['space'],0,0.6327668789890595,None,,,sub-003,ses-main-stim-z-1,run-1,grey,2024-04-25_14h46.00.804,VDT,2023.2.3,119.75225985230969,2024-04-25 14h49.21.573475 +0200,
./images_beh/Sphere_CCW-1.5_BG-grey_stim-white.png,0,190,190,190,193.1340700489818,,,,,,,,,,193.08734379097586,193.15815055498388,193.15815055498388,193.90899677400012,193.90126406797208,194.1244989859988,None,0,,,,,sub-003,ses-main-stim-z-1,run-1,grey,2024-04-25_14h46.00.804,VDT,2023.2.3,119.75225985230969,2024-04-25 14h49.21.573475 +0200,
./images_beh/Sphere_CCW-1.5_BG-grey_stim-white.png,0,191,191,191,194.16705286799697,,,,,,,,,,194.12512418499682,194.16705286799697,194.16705286799697,194.90847146796295,194.90847146796295,195.12528525298694,None,0,,,,,sub-003,ses-main-stim-z-1,run-1,grey,2024-04-25_14h46.00.804,VDT,2023.2.3,119.75225985230969,2024-04-25 14h49.21.573475 +0200,
./images_beh/Sphere_CW-1.5_BG-grey_stim-white.png,0,192,192,192,195.1754803530057,,,,,,,,,,195.12604189297417,195.1754803530057,195.1754803530057,195.9171869189595,195.92539228900569,196.124692960002,None,0,,,,,sub-003,ses-main-stim-z-1,run-1,grey,2024-04-25_14h46.00.804,VDT,2023.2.3,119.75225985230969,2024-04-25 14h49.21.573475 +0200,
./images_beh/Sphere_CW-1.5_BG-grey_stim-white.png,0,193,193,193,196.1714413620066,,,,,,,,,,196.12531507195672,196.1714413620066,196.1714413620066,196.9079974599881,196.91646019701147,197.13406554900575,None,0,,,,,sub-003,ses-main-stim-z-1,run-1,grey,2024-04-25_14h46.00.804,VDT,2023.2.3,119.75225985230969,2024-04-25 14h49.21.573475 +0200,
./images_beh/Sphere_CW-1.5_BG-grey_stim-white.png,0,194,194,194,197.18152344500413,,,,,,,,,,197.13486866099993,197.18152344500413,197.18152344500413,197.90756199200405,197.9225012329989,198.13668619201053,None,0,,,,,sub-003,ses-main-stim-z-1,run-1,grey,2024-04-25_14h46.00.804,VDT,2023.2.3,119.75225985230969,2024-04-25 14h49.21.573475 +0200,
./images_beh/Sphere_Ref_BG-grey_stim-white.png,0,195,195,195,198.18666953296633,,,,,,,,,,198.13740670698462,198.18666953296633,198.18666953296633,198.90587366797263,198.9316490799538,199.1516313480097,['space'],0,0.43695326399756595,None,199.15077352296794,,sub-003,ses-main-stim-z-1,run-1,grey,2024-04-25_14h46.00.804,VDT,2023.2.3,119.75225985230969,2024-04-25 14h49.21.573475 +0200,
./images_beh/Sphere_CCW-1.5_BG-grey_stim-white.png,0,196,196,196,199.19823157199426,,,,,,,,,,199.15282699698582,199.19823157199426,199.19823157199426,199.90664227696834,199.93819197796984,200.10590731695993,None,0,,,,,sub-003,ses-main-stim-z-1,run-1,grey,2024-04-25_14h46.00.804,VDT,2023.2.3,119.75225985230969,2024-04-25 14h49.21.573475 +0200,
./images_beh/Sphere_CCW-1.5_BG-grey_stim-white.png,0,197,197,197,200.15287676395383,,,,,,,,,,200.10665071598487,200.1646132459864,200.1646132459864,200.9055629769573,200.9055629769573,201.1655182049726,None,0,,,201.14746865996858,201.15313567395788,sub-003,ses-main-stim-z-1,run-1,grey,2024-04-25_14h46.00.804,VDT,2023.2.3,119.75225985230969,2024-04-25 14h49.21.573475 +0200,
./images_beh/Sphere_CW-1.5_BG-grey_stim-white.png,0,198,198,198,201.2152278170106,,,,,,,,,,201.1663144310005,201.2152278170106,201.2152278170106,201.9046648700023,201.96360418299446,202.11731240496738,None,0,,,,,sub-003,ses-main-stim-z-1,run-1,grey,2024-04-25_14h46.00.804,VDT,2023.2.3,119.75225985230969,2024-04-25 14h49.21.573475 +0200,
./images_beh/Sphere_CCW-1.5_BG-grey_stim-white.png,0,199,199,199,202.1649043019861,,,,,,,,,,202.1180982919759,202.1649043019861,202.1649043019861,202.91319033596665,202.91319033596665,203.08710310299648,None,0,,,,,sub-003,ses-main-stim-z-1,run-1,grey,2024-04-25_14h46.00.804,VDT,2023.2.3,119.75225985230969,2024-04-25 14h49.21.573475 +0200,
./images_beh/Sphere_CCW-1.5_BG-grey_stim-white.png,0,200,200,200,203.1310027439613,,,,,,,,,,203.08768308797153,203.16347712196875,203.16347712196875,203.91250173398294,203.90110790298786,204.1141624400043,['space'],0,0.3963525500148535,None,,,sub-003,ses-main-stim-z-1,run-1,grey,2024-04-25_14h46.00.804,VDT,2023.2.3,119.75225985230969,2024-04-25 14h49.21.573475 +0200,
./images_beh/Sphere_CCW-1.5_BG-grey_stim-white.png,0,201,201,201,204.1616831299616,,,,,,,,,,204.11522931500804,204.16735883697402,204.16735883697402,204.9121916120057,204.9121916120057,205.11277392599732,None,0,,,,,sub-003,ses-main-stim-z-1,run-1,grey,2024-04-25_14h46.00.804,VDT,2023.2.3,119.75225985230969,2024-04-25 14h49.21.573475 +0200,
./images_beh/Sphere_CW-1.5_BG-grey_stim-white.png,0,202,202,202,205.15700709400699,,,,,,,,,,205.1136844769935,205.16193865897367,205.16193865897367,205.91196935396874,205.90085485897725,206.07963803497842,['space'],0,0.47760050802025944,None,,,sub-003,ses-main-stim-z-1,run-1,grey,2024-04-25_14h46.00.804,VDT,2023.2.3,119.75225985230969,2024-04-25 14h49.21.573475 +0200,
./images_beh/Sphere_Ref_BG-grey_stim-white.png,0,203,203,203,206.125795001979,,,,,,,,,,206.08067441696767,206.1613405069802,206.1613405069802,206.91428272996563,206.91428272996563,207.0860005869763,None,0,,,,,sub-003,ses-main-stim-z-1,run-1,grey,2024-04-25_14h46.00.804,VDT,2023.2.3,119.75225985230969,2024-04-25 14h49.21.573475 +0200,
./images_beh/Sphere_CW-1.5_BG-grey_stim-white.png,0,204,204,204,207.13430945499567,,,,,,,,,,207.08658731298055,207.16107857198222,207.16107857198222,207.91087043198058,207.90048660995672,208.1289730349672,None,0,,,,,sub-003,ses-main-stim-z-1,run-1,grey,2024-04-25_14h46.00.804,VDT,2023.2.3,119.75225985230969,2024-04-25 14h49.21.573475 +0200,
./images_beh/Sphere_CW-1.5_BG-grey_stim-white.png,0,205,205,205,208.17796949797776,,,,,,,,,,208.1297496559564,208.17796949797776,208.17796949797776,208.91032321500825,208.9180136579671,209.13066332496237,None,0,,,,,sub-003,ses-main-stim-z-1,run-1,grey,2024-04-25_14h46.00.804,VDT,2023.2.3,119.75225985230969,2024-04-25 14h49.21.573475 +0200,
./images_beh/Sphere_Ref_BG-grey_stim-white.png,0,206,206,206,209.180590326956,,,,,,,,,,209.1313883640105,209.180590326956,209.180590326956,209.90933256299468,209.92618528095772,210.13407089898828,['space'],0,0.5866985259926878,None,,,sub-003,ses-main-stim-z-1,run-1,grey,2024-04-25_14h46.00.804,VDT,2023.2.3,119.75225985230969,2024-04-25 14h49.21.573475 +0200,
./images_beh/Sphere_CW-1.5_BG-grey_stim-white.png,0,207,207,207,210.18491361197084,,,,,,,,,,210.1352283859742,210.18491361197084,210.18491361197084,210.9173516019946,210.92571889597457,211.12709041300695,None,0,,,,,sub-003,ses-main-stim-z-1,run-1,grey,2024-04-25_14h46.00.804,VDT,2023.2.3,119.75225985230969,2024-04-25 14h49.21.573475 +0200,
./images_beh/Sphere_CW-1.5_BG-grey_stim-white.png,0,208,208,208,211.17281834199093,,,,,,,,,,211.12795157800429,211.17281834199093,211.17281834199093,211.90822039201157,211.91510212095454,212.14325171295786,None,0,,,,,sub-003,ses-main-stim-z-1,run-1,grey,2024-04-25_14h46.00.804,VDT,2023.2.3,119.75225985230969,2024-04-25 14h49.21.573475 +0200,
./images_beh/Sphere_Ref_BG-grey_stim-white.png,0,209,209,209,212.19044390995987,,,,,,,,,,212.14410138799576,212.19044390995987,212.19044390995987,212.91088787699118,212.93227492895676,213.14853869297076,None,0,,,,,sub-003,ses-main-stim-z-1,run-1,grey,2024-04-25_14h46.00.804,VDT,2023.2.3,119.75225985230969,2024-04-25 14h49.21.573475 +0200,
./images_beh/Sphere_CW-1.5_BG-grey_stim-white.png,0,210,210,210,213.19587680097902,,,,,,,,,,213.1492405619938,213.19587680097902,213.19587680097902,213.9075997339678,213.94083254999714,214.10833298997022,None,0,,,,,sub-003,ses-main-stim-z-1,run-1,grey,2024-04-25_14h46.00.804,VDT,2023.2.3,119.75225985230969,2024-04-25 14h49.21.573475 +0200,
./images_beh/Sphere_CCW-1.5_BG-grey_stim-white.png,0,211,211,211,214.1523291009944,,,,,,,,,,214.10924170695944,214.1570454639732,214.1570454639732,214.91487593896454,214.90771193400724,215.09126603900222,None,0,,,,,sub-003,ses-main-stim-z-1,run-1,grey,2024-04-25_14h46.00.804,VDT,2023.2.3,119.75225985230969,2024-04-25 14h49.21.573475 +0200,
./images_beh/Sphere_CCW-1.5_BG-grey_stim-white.png,0,212,212,212,215.13947564095724,,,,,,,,,,215.0923026310047,215.16224905999843,215.16224905999843,215.90698220999911,215.90698220999911,216.11417865898693,None,0,,,,,sub-003,ses-main-stim-z-1,run-1,grey,2024-04-25_14h46.00.804,VDT,2023.2.3,119.75225985230969,2024-04-25 14h49.21.573475 +0200,
./images_beh/Sphere_Ref_BG-grey_stim-white.png,0,213,213,213,216.16378264699597,,,,,,,,,,216.11491156800184,216.16378264699597,216.16378264699597,216.91353465197608,216.90580160997342,217.10629386396613,['space'],0,0.7081239600083791,None,,,sub-003,ses-main-stim-z-1,run-1,grey,2024-04-25_14h46.00.804,VDT,2023.2.3,119.75225985230969,2024-04-25 14h49.21.573475 +0200,
./images_beh/Sphere_CCW-1.5_BG-grey_stim-white.png,0,214,214,214,217.14041736599756,,,,,,,,,,217.10718598100357,217.16157510696212,217.16157510696212,217.91172251896933,217.90530321997358,218.0893043729593,None,0,,,,,sub-003,ses-main-stim-z-1,run-1,grey,2024-04-25_14h46.00.804,VDT,2023.2.3,119.75225985230969,2024-04-25 14h49.21.573475 +0200,
./images_beh/Sphere_CCW-1.5_BG-grey_stim-white.png,0,215,215,215,218.13305728300475,,,,,,,,,,218.09020800195867,218.16064612398623,218.16064612398623,218.91153315000702,218.9050216099713,219.10539373697247,None,0,,,,,sub-003,ses-main-stim-z-1,run-1,grey,2024-04-25_14h46.00.804,VDT,2023.2.3,119.75225985230969,2024-04-25 14h49.21.573475 +0200,
./images_beh/Sphere_CW-1.5_BG-grey_stim-white.png,0,216,216,216,219.15134141297312,,,,,,,,,,219.10671726596775,219.15587200096343,219.15587200096343,219.91130597499432,219.9044472319656,220.10535301198252,None,0,,,,,sub-003,ses-main-stim-z-1,run-1,grey,2024-04-25_14h46.00.804,VDT,2023.2.3,119.75225985230969,2024-04-25 14h49.21.573475 +0200,
./images_beh/Sphere_CCW-1.5_BG-grey_stim-white.png,0,217,217,217,220.15301240695408,,,,,,,,,,220.10644415696152,220.15836486697663,220.15836486697663,220.9087589069968,220.9034699529875,221.12131100997794,None,0,,,,,sub-003,ses-main-stim-z-1,run-1,grey,2024-04-25_14h46.00.804,VDT,2023.2.3,119.75225985230969,2024-04-25 14h49.21.573475 +0200,
./images_beh/Sphere_Ref_BG-grey_stim-white.png,0,218,218,218,221.16670562996296,,,,,,,,,,221.12233656900935,221.16670562996296,221.16670562996296,221.90962219395442,221.90962219395442,222.12545847101137,['space'],0,0.5287348600104451,None,,,sub-003,ses-main-stim-z-1,run-1,grey,2024-04-25_14h46.00.804,VDT,2023.2.3,119.75225985230969,2024-04-25 14h49.21.573475 +0200,
./images_beh/Sphere_CCW-1.5_BG-grey_stim-white.png,0,219,219,219,222.15906985697802,,,,,,,,,,222.12593444500817,222.16953383997316,222.16953383997316,222.91029412200442,222.91029412200442,223.12785710400203,None,0,,,,,sub-003,ses-main-stim-z-1,run-1,grey,2024-04-25_14h46.00.804,VDT,2023.2.3,119.75225985230969,2024-04-25 14h49.21.573475 +0200,
./images_beh/Sphere_CCW-1.5_BG-grey_stim-white.png,0,220,220,220,223.17562296497636,,,,,,,,,,223.12857857596828,223.17562296497636,223.17562296497636,223.9120664119837,223.92020185600268,224.13969362096395,None,0,,,,,sub-003,ses-main-stim-z-1,run-1,grey,2024-04-25_14h46.00.804,VDT,2023.2.3,119.75225985230969,2024-04-25 14h49.21.573475 +0200,
./images_beh/Sphere_CW-1.5_BG-grey_stim-white.png,0,221,221,221,224.18732503498904,,,,,,,,,,224.14042190898908,224.18732503498904,224.18732503498904,224.910708084004,224.93524588597938,225.10956849699141,None,0,,,,,sub-003,ses-main-stim-z-1,run-1,grey,2024-04-25_14h46.00.804,VDT,2023.2.3,119.75225985230969,2024-04-25 14h49.21.573475 +0200,
./images_beh/Sphere_Ref_BG-grey_stim-white.png,0,222,222,222,225.15685185196344,,,,,,,,,,225.11028593900846,225.16831348999403,225.16831348999403,225.9062992859981,225.9062992859981,226.1859216329758,['space'],0,0.6471929080435075,None,226.15083069598768,226.15548288397258,sub-003,ses-main-stim-z-1,run-1,grey,2024-04-25_14h46.00.804,VDT,2023.2.3,119.75225985230969,2024-04-25 14h49.21.573475 +0200,
./images_beh/Sphere_CW-1.5_BG-grey_stim-white.png,0,223,223,223,226.23660666600335,,,,,,,,,,226.18733792600688,226.23660666600335,226.23660666600335,226.90832351596327,226.9842503379914,227.08524993498577,None,0,,,,,sub-003,ses-main-stim-z-1,run-1,grey,2024-04-25_14h46.00.804,VDT,2023.2.3,119.75225985230969,2024-04-25 14h49.21.573475 +0200,
./images_beh/Sphere_CW-1.5_BG-grey_stim-white.png,0,224,224,224,227.13106559199514,,,,,,,,,,227.08620631496888,227.15589934698073,227.15589934698073,227.9057109709829,227.89996782399248,228.0896987110027,None,0,,,,,sub-003,ses-main-stim-z-1,run-1,grey,2024-04-25_14h46.00.804,VDT,2023.2.3,119.75225985230969,2024-04-25 14h49.21.573475 +0200,
./images_beh/Sphere_Ref_BG-grey_stim-white.png,0,225,225,225,228.13019943796098,,,,,,,,,,228.09013970795786,228.155636031006,228.155636031006,228.90554802695988,228.8994993729866,229.13878588896478,['space'],0,0.5241014470229857,None,,,sub-003,ses-main-stim-z-1,run-1,grey,2024-04-25_14h46.00.804,VDT,2023.2.3,119.75225985230969,2024-04-25 14h49.21.573475 +0200,
./images_beh/Sphere_CCW-1.5_BG-grey_stim-white.png,0,226,226,226,229.1774703899864,,,,,,,,,,229.13934961199993,229.1774703899864,229.1774703899864,229.905740540009,229.9217737899744,230.1870557880029,None,0,,,230.15387319400907,230.16982654400636,sub-003,ses-main-stim-z-1,run-1,grey,2024-04-25_14h46.00.804,VDT,2023.2.3,119.75225985230969,2024-04-25 14h49.21.573475 +0200,
./images_beh/Sphere_CCW-1.5_BG-grey_stim-white.png,0,227,227,227,230.2203715170035,,,,,,,,,,230.18737092596712,230.2203715170035,230.2203715170035,230.9054908559774,230.96503727301024,231.13263387396,None,0,,,,,sub-003,ses-main-stim-z-1,run-1,grey,2024-04-25_14h46.00.804,VDT,2023.2.3,119.75225985230969,2024-04-25 14h49.21.573475 +0200,
./images_beh/Sphere_Ref_BG-grey_stim-white.png,0,228,228,228,231.1687038569944,,,,,,,,,,231.13339184195502,231.1687038569944,231.1687038569944,231.90474474197254,231.9144151149667,232.13140735396883,['space'],0,0.6544464030303061,None,,,sub-003,ses-main-stim-z-1,run-1,grey,2024-04-25_14h46.00.804,VDT,2023.2.3,119.75225985230969,2024-04-25 14h49.21.573475 +0200,
./images_beh/Sphere_CW-1.5_BG-grey_stim-white.png,0,229,229,229,232.16778496000916,,,,,,,,,,232.13196175795747,232.16778496000916,232.16778496000916,232.90301380096935,232.91398669598857,233.1358499029884,None,0,,,,,sub-003,ses-main-stim-z-1,run-1,grey,2024-04-25_14h46.00.804,VDT,2023.2.3,119.75225985230969,2024-04-25 14h49.21.573475 +0200,
./images_beh/Sphere_CCW-1.5_BG-grey_stim-white.png,0,230,230,230,233.1715773199685,,,,,,,,,,233.13614200201118,233.1715773199685,233.1715773199685,233.90273084596265,233.91853490797803,234.13077997299843,None,0,,,,,sub-003,ses-main-stim-z-1,run-1,grey,2024-04-25_14h46.00.804,VDT,2023.2.3,119.75225985230969,2024-04-25 14h49.21.573475 +0200,
./images_beh/Sphere_CW-1.5_BG-grey_stim-white.png,0,231,231,231,234.16671070898883,,,,,,,,,,234.13141297997208,234.16671070898883,234.16671070898883,234.91281514498405,234.91281514498405,235.1505726549658,None,0,,,235.1500205739867,,sub-003,ses-main-stim-z-1,run-1,grey,2024-04-25_14h46.00.804,VDT,2023.2.3,119.75225985230969,2024-04-25 14h49.21.573475 +0200,
./images_beh/Sphere_CCW-1.5_BG-grey_stim-white.png,0,232,232,232,235.18490243901033,,,,,,,,,,235.15086544700898,235.18490243901033,235.18490243901033,235.9123091250076,235.92908639699453,236.1173731169547,None,0,,,,,sub-003,ses-main-stim-z-1,run-1,grey,2024-04-25_14h46.00.804,VDT,2023.2.3,119.75225985230969,2024-04-25 14h49.21.573475 +0200,
./images_beh/Sphere_CW-1.5_BG-grey_stim-white.png,0,233,233,233,236.15034821996232,,,,,,,,,,236.1176534309634,236.16198747197632,236.16198747197632,236.9123324889806,236.90098553098505,237.11936116201105,None,0,,,,,sub-003,ses-main-stim-z-1,run-1,grey,2024-04-25_14h46.00.804,VDT,2023.2.3,119.75225985230969,2024-04-25 14h49.21.573475 +0200,
./images_beh/Sphere_CCW-1.5_BG-grey_stim-white.png,0,234,234,234,237.16551008599345,,,,,,,,,,237.11995586496778,237.16551008599345,237.16551008599345,237.91195331997005,237.91195331997005,238.10261215496575,None,0,,,,,sub-003,ses-main-stim-z-1,run-1,grey,2024-04-25_14h46.00.804,VDT,2023.2.3,119.75225985230969,2024-04-25 14h49.21.573475 +0200,
./images_beh/Sphere_CW-1.5_BG-grey_stim-white.png,0,235,235,235,238.14850524696521,,,,,,,,,,238.10321107698837,238.16157596296398,238.16157596296398,238.9110179679701,238.8995769909816,239.11716339195846,['space'],0,0.6531493649818003,None,,,sub-003,ses-main-stim-z-1,run-1,grey,2024-04-25_14h46.00.804,VDT,2023.2.3,119.75225985230969,2024-04-25 14h49.21.573475 +0200,
./images_beh/Sphere_Ref_BG-grey_stim-white.png,0,236,236,236,239.15276179095963,,,,,,,,,,239.11772469995776,239.16051369399065,239.16051369399065,239.91086808301043,239.89996400498785,240.08363485196605,None,0,,,,,sub-003,ses-main-stim-z-1,run-1,grey,2024-04-25_14h46.00.804,VDT,2023.2.3,119.75225985230969,2024-04-25 14h49.21.573475 +0200,
./images_beh/Sphere_CCW-1.5_BG-grey_stim-white.png,0,237,237,237,240.12592082098126,,,,,,,,,,240.0841776339803,240.1608265709947,240.1608265709947,240.91064804198686,240.8999824859784,241.14474774495466,None,0,,,,,sub-003,ses-main-stim-z-1,run-1,grey,2024-04-25_14h46.00.804,VDT,2023.2.3,119.75225985230969,2024-04-25 14h49.21.573475 +0200,
./images_beh/Sphere_CW-1.5_BG-grey_stim-white.png,0,238,238,238,241.19300432200544,,,,,,,,,,241.14559003600152,241.19300432200544,241.19300432200544,241.90996032295516,241.93291502300417,242.12703622999834,None,0,,,,,sub-003,ses-main-stim-z-1,run-1,grey,2024-04-25_14h46.00.804,VDT,2023.2.3,119.75225985230969,2024-04-25 14h49.21.573475 +0200,
./images_beh/Sphere_CCW-1.5_BG-grey_stim-white.png,0,239,239,239,242.16919878998306,,,,,,,,,,242.12787525897147,242.16919878998306,242.16919878998306,242.9093112249975,242.91620868700556,243.13346426800126,None,0,,,,,sub-003,ses-main-stim-z-1,run-1,grey,2024-04-25_14h46.00.804,VDT,2023.2.3,119.75225985230969,2024-04-25 14h49.21.573475 +0200,
./images_beh/Sphere_CW-1.5_BG-grey_stim-white.png,0,240,240,240,243.1775315849809,,,,,,,,,,243.13404713495402,243.1775315849809,243.1775315849809,243.92802705796203,243.92802705796203,244.11004655598663,None,0,,,,,sub-003,ses-main-stim-z-1,run-1,grey,2024-04-25_14h46.00.804,VDT,2023.2.3,119.75225985230969,2024-04-25 14h49.21.573475 +0200,
./images_beh/Sphere_CW-1.5_BG-grey_stim-white.png,0,241,241,241,244.1569429889787,,,,,,,,,,244.111223615997,244.1627366009634,244.1627366009634,244.92767603800166,244.92767603800166,245.09317557996837,None,0,,,,,sub-003,ses-main-stim-z-1,run-1,grey,2024-04-25_14h46.00.804,VDT,2023.2.3,119.75225985230969,2024-04-25 14h49.21.573475 +0200,
./images_beh/Sphere_Ref_BG-grey_stim-white.png,0,242,242,242,245.13841007300653,,,,,,,,,,245.09392827597912,245.16466492798645,245.16466492798645,245.9132715089945,245.9132715089945,246.11487382400082,['space'],0,0.5870458040153608,None,,,sub-003,ses-main-stim-z-1,run-1,grey,2024-04-25_14h46.00.804,VDT,2023.2.3,119.75225985230969,2024-04-25 14h49.21.573475 +0200,
./images_beh/Sphere_CW-1.5_BG-grey_stim-white.png,0,243,243,243,246.16248226596508,,,,,,,,,,246.11578851396916,246.16248226596508,246.16248226596508,246.9072359490092,246.9072359490092,247.1138855139725,None,0,,,,,sub-003,ses-main-stim-z-1,run-1,grey,2024-04-25_14h46.00.804,VDT,2023.2.3,119.75225985230969,2024-04-25 14h49.21.573475 +0200,
./images_beh/Sphere_CW-1.5_BG-grey_stim-white.png,0,244,244,244,247.15996533399448,,,,,,,,,,247.11467364197597,247.17377668700647,247.17377668700647,247.90689954499248,247.91380713001126,248.14130968099926,None,0,,,,,sub-003,ses-main-stim-z-1,run-1,grey,2024-04-25_14h46.00.804,VDT,2023.2.3,119.75225985230969,2024-04-25 14h49.21.573475 +0200,
./images_beh/Sphere_CCW-1.5_BG-grey_stim-white.png,0,245,245,245,248.1866364919697,,,,,,,,,,248.1420067709987,248.1866364919697,248.1866364919697,248.9146903739893,248.92936800495954,249.1403848970076,None,0,,,,,sub-003,ses-main-stim-z-1,run-1,grey,2024-04-25_14h46.00.804,VDT,2023.2.3,119.75225985230969,2024-04-25 14h49.21.573475 +0200,
./images_beh/Sphere_Ref_BG-grey_stim-white.png,0,246,246,246,249.1901272489922,,,,,,,,,,249.14151303900871,249.1901272489922,249.1901272489922,249.91343100497033,249.93907717597904,250.12868501798948,['space'],0,0.7697174539789557,None,,,sub-003,ses-main-stim-z-1,run-1,grey,2024-04-25_14h46.00.804,VDT,2023.2.3,119.75225985230969,2024-04-25 14h49.21.573475 +0200,
./images_beh/Sphere_CCW-1.5_BG-grey_stim-white.png,0,247,247,247,250.170551691961,,,,,,,,,,250.12927150400355,250.170551691961,250.170551691961,250.91026223095832,250.91026223095832,251.0936209189822,None,0,,,,,sub-003,ses-main-stim-z-1,run-1,grey,2024-04-25_14h46.00.804,VDT,2023.2.3,119.75225985230969,2024-04-25 14h49.21.573475 +0200,
./images_beh/Sphere_CCW-1.5_BG-grey_stim-white.png,0,248,248,248,251.12720949196955,,,,,,,,,,251.09391227801098,251.16043527098373,251.16043527098373,251.9100041119964,251.90453310898738,252.09310025395826,None,0,,,,,sub-003,ses-main-stim-z-1,run-1,grey,2024-04-25_14h46.00.804,VDT,2023.2.3,119.75225985230969,2024-04-25 14h49.21.573475 +0200,
./images_beh/Sphere_Ref_BG-grey_stim-white.png,0,249,249,249,252.1282590329647,,,,,,,,,,252.09337620000588,252.15942986495793,252.15942986495793,252.90942638897104,252.9038526749937,253.1096702949726,['space'],0,0.567632935999427,None,,,sub-003,ses-main-stim-z-1,run-1,grey,2024-04-25_14h46.00.804,VDT,2023.2.3,119.75225985230969,2024-04-25 14h49.21.573475 +0200,
./images_beh/Sphere_CCW-1.5_BG-grey_stim-white.png,0,250,250,250,253.14567836601054,,,,,,,,,,253.11015422997298,253.1590716619976,253.1590716619976,253.91020072397077,253.9036178009701,254.11039813497337,None,0,,,,,sub-003,ses-main-stim-z-1,run-1,grey,2024-04-25_14h46.00.804,VDT,2023.2.3,119.75225985230969,2024-04-25 14h49.21.573475 +0200,
./images_beh/Sphere_CW-1.5_BG-grey_stim-white.png,0,251,251,251,254.15464720700402,,,,,,,,,,254.11099418799859,254.17004966997774,254.17004966997774,254.91009588498855,254.91009588498855,255.12579852499766,None,0,,,,,sub-003,ses-main-stim-z-1,run-1,grey,2024-04-25_14h46.00.804,VDT,2023.2.3,119.75225985230969,2024-04-25 14h49.21.573475 +0200,
./images_beh/Sphere_CW-1.5_BG-grey_stim-white.png,0,252,252,252,255.16330459498568,,,,,,,,,,255.12609365396202,255.16330459498568,255.16330459498568,255.90763468795922,255.90763468795922,256.1195776509703,None,0,,,,,sub-003,ses-main-stim-z-1,run-1,grey,2024-04-25_14h46.00.804,VDT,2023.2.3,119.75225985230969,2024-04-25 14h49.21.573475 +0200,
./images_beh/Sphere_CCW-1.5_BG-grey_stim-white.png,0,253,253,253,256.15727513696766,,,,,,,,,,256.1203131650109,256.15727513696766,256.15727513696766,256.90726861398434,256.9020454819547,257.069166864967,None,0,,,,,sub-003,ses-main-stim-z-1,run-1,grey,2024-04-25_14h46.00.804,VDT,2023.2.3,119.75225985230969,2024-04-25 14h49.21.573475 +0200,
./images_beh/Sphere_Ref_BG-grey_stim-white.png,0,254,254,254,257.1030553950113,,,,,,,,,,257.06981304998044,257.1574745369726,257.1574745369726,257.9064854559838,257.9015436519985,258.1021494710003,['space'],0,0.8662013820139691,None,,,sub-003,ses-main-stim-z-1,run-1,grey,2024-04-25_14h46.00.804,VDT,2023.2.3,119.75225985230969,2024-04-25 14h49.21.573475 +0200,
./images_beh/Sphere_CW-1.5_BG-grey_stim-white.png,0,255,255,255,258.13752548996126,,,,,,,,,,258.10270863201004,258.15694562799763,258.15694562799763,258.9073711389792,258.9010764579871,259.1229861169704,None,0,,,,,sub-003,ses-main-stim-z-1,run-1,grey,2024-04-25_14h46.00.804,VDT,2023.2.3,119.75225985230969,2024-04-25 14h49.21.573475 +0200,
./images_beh/Sphere_CCW-1.5_BG-grey_stim-white.png,0,256,256,256,259.15645387698896,,,,,,,,,,259.1233147039893,259.16697959497105,259.16697959497105,259.90565918799257,259.90565918799257,260.10372862697113,None,0,,,,,sub-003,ses-main-stim-z-1,run-1,grey,2024-04-25_14h46.00.804,VDT,2023.2.3,119.75225985230969,2024-04-25 14h49.21.573475 +0200,
./images_beh/Sphere_Ref_BG-grey_stim-white.png,0,257,257,257,260.1510672129807,,,,,,,,,,260.1044448419707,260.16665989300236,260.16665989300236,260.90748206799617,260.90748206799617,261.08468514098786,['space'],0,0.5452485710266046,None,,,sub-003,ses-main-stim-z-1,run-1,grey,2024-04-25_14h46.00.804,VDT,2023.2.3,119.75225985230969,2024-04-25 14h49.21.573475 +0200,
./images_beh/Sphere_CCW-1.5_BG-grey_stim-white.png,0,258,258,258,261.13260558201,,,,,,,,,,261.08620887598954,261.15497523598606,261.15497523598606,261.90646163298516,261.8997143349843,262.09096844197484,None,0,,,,,sub-003,ses-main-stim-z-1,run-1,grey,2024-04-25_14h46.00.804,VDT,2023.2.3,119.75225985230969,2024-04-25 14h49.21.573475 +0200,
./images_beh/Sphere_CCW-1.5_BG-grey_stim-white.png,0,259,259,259,262.1396706039668,,,,,,,,,,262.0916968449601,262.1552372240112,262.1552372240112,262.90639189298963,262.89937267196365,263.0837157429778,None,0,,,,,sub-003,ses-main-stim-z-1,run-1,grey,2024-04-25_14h46.00.804,VDT,2023.2.3,119.75225985230969,2024-04-25 14h49.21.573475 +0200,
./images_beh/Sphere_Ref_BG-grey_stim-white.png,0,260,260,260,263.130206050002,,,,,,,,,,263.08486613899004,263.15408976195613,263.15408976195613,263.9061085609719,263.8986554919975,264.0993843579781,['space'],0,0.6537708499818109,None,,,sub-003,ses-main-stim-z-1,run-1,grey,2024-04-25_14h46.00.804,VDT,2023.2.3,119.75225985230969,2024-04-25 14h49.21.573475 +0200,
./images_beh/Sphere_CW-1.5_BG-grey_stim-white.png,0,261,261,261,264.1455277809873,,,,,,,,,,264.10234926000703,264.1706122669857,264.1706122669857,264.9067003490054,264.9149397930014,265.07308923098026,None,0,,,,,sub-003,ses-main-stim-z-1,run-1,grey,2024-04-25_14h46.00.804,VDT,2023.2.3,119.75225985230969,2024-04-25 14h49.21.573475 +0200,
./images_beh/Sphere_CCW-1.5_BG-grey_stim-white.png,0,262,262,262,265.1211226370069,,,,,,,,,,265.0738139000023,265.15419727697736,265.15419727697736,265.90536555595463,265.8979319239734,266.121253596968,None,0,,,,,sub-003,ses-main-stim-z-1,run-1,grey,2024-04-25_14h46.00.804,VDT,2023.2.3,119.75225985230969,2024-04-25 14h49.21.573475 +0200,
./images_beh/Sphere_CW-1.5_BG-grey_stim-white.png,0,263,263,263,266.16741344699403,,,,,,,,,,266.12185351597145,266.16741344699403,266.16741344699403,266.90525420795893,266.9140138759976,267.1178414239548,None,0,,,,,sub-003,ses-main-stim-z-1,run-1,grey,2024-04-25_14h46.00.804,VDT,2023.2.3,119.75225985230969,2024-04-25 14h49.21.573475 +0200,
./images_beh/Sphere_CCW-1.5_BG-grey_stim-white.png,0,264,264,264,267.16642585996306,,,,,,,,,,267.1186172189773,267.16642585996306,267.16642585996306,267.9054928199621,267.91308665898396,268.1480588109698,None,0,,,,,sub-003,ses-main-stim-z-1,run-1,grey,2024-04-25_14h46.00.804,VDT,2023.2.3,119.75225985230969,2024-04-25 14h49.21.573475 +0200,
./images_beh/Sphere_CCW-1.5_BG-grey_stim-white.png,0,265,265,265,268.198047983984,,,,,,,,,,268.1488441109541,268.198047983984,268.198047983984,268.91299475799315,268.94626930198865,269.1533852840075,None,0,,,269.1526048629894,,sub-003,ses-main-stim-z-1,run-1,grey,2024-04-25_14h46.00.804,VDT,2023.2.3,119.75225985230969,2024-04-25 14h49.21.573475 +0200,
./images_beh/Sphere_CW-1.5_BG-grey_stim-white.png,0,266,266,266,269.2013304719585,,,,,,,,,,269.15409855596954,269.2013304719585,269.2013304719585,269.9147421880043,269.94589703396196,270.13025900395587,None,0,,,,,sub-003,ses-main-stim-z-1,run-1,grey,2024-04-25_14h46.00.804,VDT,2023.2.3,119.75225985230969,2024-04-25 14h49.21.573475 +0200,
./images_beh/Sphere_Ref_BG-grey_stim-white.png,0,267,267,267,270.17807174200425,,,,,,,,,,270.13099521695403,270.17807174200425,270.17807174200425,270.9116350960103,270.91825866000727,271.14601293596206,['space'],0,0.6374974669888616,None,,,sub-003,ses-main-stim-z-1,run-1,grey,2024-04-25_14h46.00.804,VDT,2023.2.3,119.75225985230969,2024-04-25 14h49.21.573475 +0200,
./images_beh/Sphere_CW-1.5_BG-grey_stim-white.png,0,268,268,268,271.18942358199274,,,,,,,,,,271.1469015789917,271.18942358199274,271.18942358199274,271.91110145195853,271.93441976298345,272.08573344600154,None,0,,,,,sub-003,ses-main-stim-z-1,run-1,grey,2024-04-25_14h46.00.804,VDT,2023.2.3,119.75225985230969,2024-04-25 14h49.21.573475 +0200,
./images_beh/Sphere_CW-1.5_BG-grey_stim-white.png,0,269,269,269,272.13190305198077,,,,,,,,,,272.08647008799016,272.1612458929885,272.1612458929885,272.91059177496936,272.90021657396574,273.11120036500506,None,0,,,,,sub-003,ses-main-stim-z-1,run-1,grey,2024-04-25_14h46.00.804,VDT,2023.2.3,119.75225985230969,2024-04-25 14h49.21.573475 +0200,
