image,trials.thisRepN,trials.thisTrialN,trials.thisN,trials.thisIndex,thisRow.t,notes,WaitingForScannerTrigger.started,Vertical.started,key_resp.started,WaitingForScannerTrigger.stopped,key_resp.keys,key_resp.corr,key_resp.rt,key_resp.duration,VDT.started,PresentedLine1.started,key_resp_2.started,FixDot2.started,PresentedLine1.stopped,VDT.stopped,key_resp_2.keys,key_resp_2.corr,key_resp_2.rt,key_resp_2.duration,key_resp_2.stopped,FixDot2.stopped,participant,session,run,BG_color,date,expName,psychopyVersion,frameRate,expStart,
,,,,,,,0.003631567000411451,0.008483767975121737,0.008483767975121737,6.173837274021935,s,0,6.11919943097746,None,,,,,,,,,,,,,sub-003,ses-control-bqse-z-2,run-1,grey,2024-04-25_13h36.59.734,VDT,2023.2.3,120.34255080046589,2024-04-25 13h37.19.614144 +0200,
./images_beh/Sphere_CW-1.5_BG-grey_stim-white.png,0,0,0,0,6.232894558983389,,,,,,,,,,6.193156077992171,6.232894558983389,6.232894558983389,6.915822555019986,6.977584962965921,7.115986349002924,None,0,,,,,sub-003,ses-control-bqse-z-2,run-1,grey,2024-04-25_13h36.59.734,VDT,2023.2.3,120.34255080046589,2024-04-25 13h37.19.614144 +0200,
./images_beh/Sphere_Ref_BG-grey_stim-white.png,0,1,1,1,7.163968531007413,,,,,,,,,,7.118558428017423,7.174100717995316,7.174100717995316,7.915268089971505,7.915268089971505,8.109108810022008,None,0,,,,,sub-003,ses-control-bqse-z-2,run-1,grey,2024-04-25_13h36.59.734,VDT,2023.2.3,120.34255080046589,2024-04-25 13h37.19.614144 +0200,
./images_beh/Sphere_CCW-1.5_BG-grey_stim-yellow.png,0,2,2,2,8.153721911017783,,,,,,,,,,8.109873395005707,8.16309025598457,8.16309025598457,8.914080039015971,8.90744432300562,9.114609364012722,['space'],0,0.4211918499786407,None,,,sub-003,ses-control-bqse-z-2,run-1,grey,2024-04-25_13h36.59.734,VDT,2023.2.3,120.34255080046589,2024-04-25 13h37.19.614144 +0200,
./images_beh/Sphere_CCW-1.5_BG-grey_stim-white.png,0,3,3,3,9.16161655401811,,,,,,,,,,9.117358023999259,9.173663933994249,9.173663933994249,9.91345078498125,9.91345078498125,10.091414571972564,None,0,,,,,sub-003,ses-control-bqse-z-2,run-1,grey,2024-04-25_13h36.59.734,VDT,2023.2.3,120.34255080046589,2024-04-25 13h37.19.614144 +0200,
./images_beh/Sphere_CW-1.5_BG-grey_stim-white.png,0,4,4,4,10.142342141014524,,,,,,,,,,10.092241970007308,10.162746827001683,10.162746827001683,10.912050058017485,10.906344598974101,11.090210677997675,None,0,,,,,sub-003,ses-control-bqse-z-2,run-1,grey,2024-04-25_13h36.59.734,VDT,2023.2.3,120.34255080046589,2024-04-25 13h37.19.614144 +0200,
./images_beh/Sphere_CCW-1.5_BG-grey_stim-white.png,0,5,5,5,11.126203279010952,,,,,,,,,,11.090844327001832,11.162161743966863,11.162161743966863,11.923222380981315,11.905892139999196,12.140471748018172,None,0,,,,,sub-003,ses-control-bqse-z-2,run-1,grey,2024-04-25_13h36.59.734,VDT,2023.2.3,120.34255080046589,2024-04-25 13h37.19.614144 +0200,
./images_beh/Sphere_Ref_BG-grey_stim-yellow.png,0,6,6,6,12.191624596016482,,,,,,,,,,12.141264602018055,12.191624596016482,12.191624596016482,12.921791156986728,12.94092779798666,13.113123596995138,['space'],0,0.3678261649911292,None,,,sub-003,ses-control-bqse-z-2,run-1,grey,2024-04-25_13h36.59.734,VDT,2023.2.3,120.34255080046589,2024-04-25 13h37.19.614144 +0200,
./images_beh/Sphere_CCW-1.5_BG-grey_stim-white.png,0,7,7,7,13.159047856985126,,,,,,,,,,13.114087324007414,13.171937883016653,13.171937883016653,13.921642915986013,13.910830350010656,14.11211181699764,None,0,,,,,sub-003,ses-control-bqse-z-2,run-1,grey,2024-04-25_13h36.59.734,VDT,2023.2.3,120.34255080046589,2024-04-25 13h37.19.614144 +0200,
./images_beh/Sphere_CCW-1.5_BG-grey_stim-white.png,0,8,8,8,14.157478725013789,,,,,,,,,,14.112822371011134,14.171405237982981,14.171405237982981,14.921184253995307,14.909633214003406,15.122464347979985,None,0,,,,,sub-003,ses-control-bqse-z-2,run-1,grey,2024-04-25_13h36.59.734,VDT,2023.2.3,120.34255080046589,2024-04-25 13h37.19.614144 +0200,
./images_beh/Sphere_CCW-1.5_BG-grey_stim-white.png,0,9,9,9,15.167008802993223,,,,,,,,,,15.123261527973227,15.172905397019349,15.172905397019349,15.9207896880107,15.9207896880107,16.104809078969993,None,0,,,,,sub-003,ses-control-bqse-z-2,run-1,grey,2024-04-25_13h36.59.734,VDT,2023.2.3,120.34255080046589,2024-04-25 13h37.19.614144 +0200,
./images_beh/Sphere_CW-1.5_BG-grey_stim-white.png,0,10,10,10,16.14821805601241,,,,,,,,,,16.105680509004742,16.170274502015673,16.170274502015673,16.919935022015125,16.909139905008487,17.143304788973182,None,0,,,,,sub-003,ses-control-bqse-z-2,run-1,grey,2024-04-25_13h36.59.734,VDT,2023.2.3,120.34255080046589,2024-04-25 13h37.19.614144 +0200,
./images_beh/Sphere_Ref_BG-grey_stim-yellow.png,0,11,11,11,17.189024478022475,,,,,,,,,,17.144001031992957,17.189024478022475,17.189024478022475,17.9195631389739,17.936083416978363,18.094522215018515,['space'],0,0.41742076800437644,None,,,sub-003,ses-control-bqse-z-2,run-1,grey,2024-04-25_13h36.59.734,VDT,2023.2.3,120.34255080046589,2024-04-25 13h37.19.614144 +0200,
./images_beh/Sphere_CW-1.5_BG-grey_stim-white.png,0,12,12,12,18.14357234898489,,,,,,,,,,18.095588190015405,18.168956840003375,18.168956840003375,18.918952456966508,18.908435966004618,19.09316123800818,None,0,,,,,sub-003,ses-control-bqse-z-2,run-1,grey,2024-04-25_13h36.59.734,VDT,2023.2.3,120.34255080046589,2024-04-25 13h37.19.614144 +0200,
./images_beh/Sphere_CW-1.5_BG-grey_stim-white.png,0,13,13,13,19.137813912006095,,,,,,,,,,19.093827834003605,19.16894450597465,19.16894450597465,19.918408095021732,19.907007923000492,20.092615636007395,None,0,,,,,sub-003,ses-control-bqse-z-2,run-1,grey,2024-04-25_13h36.59.734,VDT,2023.2.3,120.34255080046589,2024-04-25 13h37.19.614144 +0200,
./images_beh/Sphere_CCW-1.5_BG-grey_stim-white.png,0,14,14,14,20.14109968399862,,,,,,,,,,20.093490299012046,20.173862340976484,20.173862340976484,20.91783392097568,20.91783392097568,21.124795662006363,None,0,,,,,sub-003,ses-control-bqse-z-2,run-1,grey,2024-04-25_13h36.59.734,VDT,2023.2.3,120.34255080046589,2024-04-25 13h37.19.614144 +0200,
./images_beh/Sphere_CW-1.5_BG-grey_stim-yellow.png,0,15,15,15,21.171302255999763,,,,,,,,,,21.125471341016237,21.171302255999763,21.171302255999763,21.917432766000275,21.917432766000275,22.091673030983657,['space'],0,0.42060957197099924,None,,,sub-003,ses-control-bqse-z-2,run-1,grey,2024-04-25_13h36.59.734,VDT,2023.2.3,120.34255080046589,2024-04-25 13h37.19.614144 +0200,
./images_beh/Sphere_CW-1.5_BG-grey_stim-white.png,0,16,16,16,22.140085024002474,,,,,,,,,,22.092607804981526,22.173095556965563,22.173095556965563,22.922677993017714,22.916850676992908,23.101281747978646,None,0,,,,,sub-003,ses-control-bqse-z-2,run-1,grey,2024-04-25_13h36.59.734,VDT,2023.2.3,120.34255080046589,2024-04-25 13h37.19.614144 +0200,
./images_beh/Sphere_Ref_BG-grey_stim-white.png,0,17,17,17,23.147700855974108,,,,,,,,,,23.102258205995895,23.17231678002281,23.17231678002281,23.916366720979568,23.916366720979568,24.12313023599563,None,0,,,,,sub-003,ses-control-bqse-z-2,run-1,grey,2024-04-25_13h36.59.734,VDT,2023.2.3,120.34255080046589,2024-04-25 13h37.19.614144 +0200,
./images_beh/Sphere_CCW-1.5_BG-grey_stim-white.png,0,18,18,18,24.16901371302083,,,,,,,,,,24.123849114985205,24.18280147697078,24.18280147697078,24.916053992987145,24.923205094004516,25.100905395986047,None,0,,,,,sub-003,ses-control-bqse-z-2,run-1,grey,2024-04-25_13h36.59.734,VDT,2023.2.3,120.34255080046589,2024-04-25 13h37.19.614144 +0200,
./images_beh/Sphere_CW-1.5_BG-grey_stim-white.png,0,19,19,19,25.147430031967815,,,,,,,,,,25.101698743994348,25.17262841196498,25.17262841196498,25.92357634898508,25.915772950975224,26.150146581989247,None,0,,,,,sub-003,ses-control-bqse-z-2,run-1,grey,2024-04-25_13h36.59.734,VDT,2023.2.3,120.34255080046589,2024-04-25 13h37.19.614144 +0200,
./images_beh/Sphere_CW-1.5_BG-grey_stim-white.png,0,20,20,20,26.199381206010003,,,,,,,,,,26.151022078993265,26.199381206010003,26.199381206010003,26.934091006987728,26.95185626501916,27.135627901006956,None,0,,,,,sub-003,ses-control-bqse-z-2,run-1,grey,2024-04-25_13h36.59.734,VDT,2023.2.3,120.34255080046589,2024-04-25 13h37.19.614144 +0200,
./images_beh/Sphere_CW-1.5_BG-grey_stim-white.png,0,21,21,21,27.18601388297975,,,,,,,,,,27.136351644003298,27.18601388297975,27.18601388297975,27.921879505971447,27.93105589901097,28.097938422986772,None,0,,,,,sub-003,ses-control-bqse-z-2,run-1,grey,2024-04-25_13h36.59.734,VDT,2023.2.3,120.34255080046589,2024-04-25 13h37.19.614144 +0200,
./images_beh/Sphere_CW-1.5_BG-grey_stim-white.png,0,22,22,22,28.13304569601314,,,,,,,,,,28.098634526017122,28.170308789005503,28.170308789005503,28.921773363021202,28.91408549598418,29.1206587679917,None,0,,,,,sub-003,ses-control-bqse-z-2,run-1,grey,2024-04-25_13h36.59.734,VDT,2023.2.3,120.34255080046589,2024-04-25 13h37.19.614144 +0200,
./images_beh/Sphere_CCW-1.5_BG-grey_stim-white.png,0,23,23,23,29.158389325020835,,,,,,,,,,29.12109142797999,29.16330149100395,29.16330149100395,29.920029783970676,29.903056726965588,30.16663759900257,None,0,,,30.165831309976056,,sub-003,ses-control-bqse-z-2,run-1,grey,2024-04-25_13h36.59.734,VDT,2023.2.3,120.34255080046589,2024-04-25 13h37.19.614144 +0200,
./images_beh/Sphere_Ref_BG-grey_stim-yellow.png,0,24,24,24,30.213656887994148,,,,,,,,,,30.167357805999927,30.213656887994148,30.213656887994148,30.93251885898644,30.96314677398186,31.08049136196496,['space'],0,0.3859684419585392,None,,,sub-003,ses-control-bqse-z-2,run-1,grey,2024-04-25_13h36.59.734,VDT,2023.2.3,120.34255080046589,2024-04-25 13h37.19.614144 +0200,
./images_beh/Sphere_CCW-1.5_BG-grey_stim-white.png,0,25,25,25,31.124155202007387,,,,,,,,,,31.08147616701899,31.169891681987792,31.169891681987792,31.932307820999995,31.932307820999995,32.09656353702303,None,0,,,,,sub-003,ses-control-bqse-z-2,run-1,grey,2024-04-25_13h36.59.734,VDT,2023.2.3,120.34255080046589,2024-04-25 13h37.19.614144 +0200,
./images_beh/Sphere_CCW-1.5_BG-grey_stim-white.png,0,26,26,26,32.141921360976994,,,,,,,,,,32.097738341020886,32.16888360597659,32.16888360597659,32.91970386198955,32.91213367000455,33.12034731102176,None,0,,,,,sub-003,ses-control-bqse-z-2,run-1,grey,2024-04-25_13h36.59.734,VDT,2023.2.3,120.34255080046589,2024-04-25 13h37.19.614144 +0200,
./images_beh/Sphere_Ref_BG-grey_stim-yellow.png,0,27,27,27,33.16805431898683,,,,,,,,,,33.121097563998774,33.17819212801987,33.17819212801987,33.918365427001845,33.918365427001845,34.12105415901169,['space'],0,0.4297075080103241,None,,,sub-003,ses-control-bqse-z-2,run-1,grey,2024-04-25_13h36.59.734,VDT,2023.2.3,120.34255080046589,2024-04-25 13h37.19.614144 +0200,
./images_beh/Sphere_CW-1.5_BG-grey_stim-white.png,0,28,28,28,34.159530735982116,,,,,,,,,,34.1216155589791,34.16551553201862,34.16551553201862,34.93015400500735,34.91332908096956,35.117839951999485,None,0,,,,,sub-003,ses-control-bqse-z-2,run-1,grey,2024-04-25_13h36.59.734,VDT,2023.2.3,120.34255080046589,2024-04-25 13h37.19.614144 +0200,
./images_beh/Sphere_CW-1.5_BG-grey_stim-white.png,0,29,29,29,35.161799416004214,,,,,,,,,,35.11856259900378,35.16706244600937,35.16706244600937,35.927170738985296,35.927170738985296,36.12800614401931,None,0,,,,,sub-003,ses-control-bqse-z-2,run-1,grey,2024-04-25_13h36.59.734,VDT,2023.2.3,120.34255080046589,2024-04-25 13h37.19.614144 +0200,
./images_beh/Sphere_CW-1.5_BG-grey_stim-yellow.png,0,30,30,30,36.17398880998371,,,,,,,,,,36.12861366797006,36.17398880998371,36.17398880998371,36.91647193499375,36.91647193499375,37.177722961991094,['space'],0,0.40957884897943586,None,37.16496753401589,37.15975264500594,sub-003,ses-control-bqse-z-2,run-1,grey,2024-04-25_13h36.59.734,VDT,2023.2.3,120.34255080046589,2024-04-25 13h37.19.614144 +0200,
./images_beh/Sphere_CCW-1.5_BG-grey_stim-white.png,0,31,31,31,37.226039260975085,,,,,,,,,,37.17871424299665,37.226039260975085,37.226039260975085,37.91730470897164,37.97638181300135,38.12745537399314,None,0,,,,,sub-003,ses-control-bqse-z-2,run-1,grey,2024-04-25_13h36.59.734,VDT,2023.2.3,120.34255080046589,2024-04-25 13h37.19.614144 +0200,
./images_beh/Sphere_Ref_BG-grey_stim-white.png,0,32,32,32,38.174708116974216,,,,,,,,,,38.128236140008084,38.174708116974216,38.174708116974216,38.928131649969146,38.928131649969146,39.15002031897893,None,0,,,,,sub-003,ses-control-bqse-z-2,run-1,grey,2024-04-25_13h36.59.734,VDT,2023.2.3,120.34255080046589,2024-04-25 13h37.19.614144 +0200,
./images_beh/Sphere_CCW-1.5_BG-grey_stim-yellow.png,0,33,33,33,39.198286813974846,,,,,,,,,,39.15106547699543,39.198286813974846,39.198286813974846,39.91680237901164,39.94174356298754,40.115859023004305,['space'],0,0.3617919009993784,None,,,sub-003,ses-control-bqse-z-2,run-1,grey,2024-04-25_13h36.59.734,VDT,2023.2.3,120.34255080046589,2024-04-25 13h37.19.614144 +0200,
./images_beh/Sphere_Ref_BG-grey_stim-white.png,0,34,34,34,40.16197482898133,,,,,,,,,,40.11662815196905,40.17458615399664,40.17458615399664,40.91354159300681,40.91354159300681,41.125221896974836,None,0,,,,,sub-003,ses-control-bqse-z-2,run-1,grey,2024-04-25_13h36.59.734,VDT,2023.2.3,120.34255080046589,2024-04-25 13h37.19.614144 +0200,
./images_beh/Sphere_CCW-1.5_BG-grey_stim-white.png,0,35,35,35,41.1713178739883,,,,,,,,,,41.12634982296731,41.1713178739883,41.1713178739883,41.92746703099692,41.92746703099692,42.09918025799561,None,0,,,,,sub-003,ses-control-bqse-z-2,run-1,grey,2024-04-25_13h36.59.734,VDT,2023.2.3,120.34255080046589,2024-04-25 13h37.19.614144 +0200,
./images_beh/Sphere_CW-1.5_BG-grey_stim-white.png,0,36,36,36,42.14767401799327,,,,,,,,,,42.09990473499056,42.16309668502072,42.16309668502072,42.92653195100138,42.90941846900387,43.12683347100392,None,0,,,,,sub-003,ses-control-bqse-z-2,run-1,grey,2024-04-25_13h36.59.734,VDT,2023.2.3,120.34255080046589,2024-04-25 13h37.19.614144 +0200,
./images_beh/Sphere_CW-1.5_BG-grey_stim-white.png,0,37,37,37,43.17548315296881,,,,,,,,,,43.1275656640064,43.17548315296881,43.17548315296881,43.922976049012505,43.922976049012505,44.147660970978905,None,0,,,,,sub-003,ses-control-bqse-z-2,run-1,grey,2024-04-25_13h36.59.734,VDT,2023.2.3,120.34255080046589,2024-04-25 13h37.19.614144 +0200,
./images_beh/Sphere_Ref_BG-grey_stim-white.png,0,38,38,38,44.19445347500732,,,,,,,,,,44.148403891013004,44.19445347500732,44.19445347500732,44.92229364300147,44.93937861401355,45.12361490301555,None,0,,,,,sub-003,ses-control-bqse-z-2,run-1,grey,2024-04-25_13h36.59.734,VDT,2023.2.3,120.34255080046589,2024-04-25 13h37.19.614144 +0200,
./images_beh/Sphere_CCW-1.5_BG-grey_stim-white.png,0,39,39,39,45.17180119699333,,,,,,,,,,45.12474378896877,45.177707630966324,45.177707630966324,45.924816487007774,45.9388048700057,46.114505840989295,None,0,,,,,sub-003,ses-control-bqse-z-2,run-1,grey,2024-04-25_13h36.59.734,VDT,2023.2.3,120.34255080046589,2024-04-25 13h37.19.614144 +0200,
./images_beh/Sphere_Ref_BG-grey_stim-yellow.png,0,40,40,40,46.16331918397918,,,,,,,,,,46.11528665100923,46.17192218598211,46.17192218598211,46.92176119697979,46.91073880001204,47.14646438899217,['space'],0,0.38051609304966405,None,,,sub-003,ses-control-bqse-z-2,run-1,grey,2024-04-25_13h36.59.734,VDT,2023.2.3,120.34255080046589,2024-04-25 13h37.19.614144 +0200,
./images_beh/Sphere_CCW-1.5_BG-grey_stim-white.png,0,41,41,41,47.19372029596707,,,,,,,,,,47.14786180097144,47.19372029596707,47.19372029596707,47.923510607972275,47.95731727301609,48.177759831014555,None,0,,,,48.171088039991446,sub-003,ses-control-bqse-z-2,run-1,grey,2024-04-25_13h36.59.734,VDT,2023.2.3,120.34255080046589,2024-04-25 13h37.19.614144 +0200,
./images_beh/Sphere_CCW-1.5_BG-grey_stim-white.png,0,42,42,42,48.22394898801576,,,,,,,,,,48.17834187101107,48.22394898801576,48.22394898801576,48.9230316739995,48.97044509300031,49.094112777966075,None,0,,,,,sub-003,ses-control-bqse-z-2,run-1,grey,2024-04-25_13h36.59.734,VDT,2023.2.3,120.34255080046589,2024-04-25 13h37.19.614144 +0200,
./images_beh/Sphere_CCW-1.5_BG-grey_stim-yellow.png,0,43,43,43,49.13784828799544,,,,,,,,,,49.09470303897979,49.17007107799873,49.17007107799873,49.91982894897228,49.908508973021526,50.14381019899156,['space'],0,0.39742629998363554,None,,,sub-003,ses-control-bqse-z-2,run-1,grey,2024-04-25_13h36.59.734,VDT,2023.2.3,120.34255080046589,2024-04-25 13h37.19.614144 +0200,
./images_beh/Sphere_Ref_BG-grey_stim-white.png,0,44,44,44,50.18849977699574,,,,,,,,,,50.14456812100252,50.18849977699574,50.18849977699574,50.919327465002425,50.93599399802042,51.19286916899728,None,0,,,51.18619189900346,51.158159206970595,sub-003,ses-control-bqse-z-2,run-1,grey,2024-04-25_13h36.59.734,VDT,2023.2.3,120.34255080046589,2024-04-25 13h37.19.614144 +0200,
./images_beh/Sphere_CW-1.5_BG-grey_stim-white.png,0,45,45,45,51.2404370639706,,,,,,,,,,51.193623819970526,51.2404370639706,51.2404370639706,51.91820179700153,51.98476344300434,52.10643898998387,None,0,,,,,sub-003,ses-control-bqse-z-2,run-1,grey,2024-04-25_13h36.59.734,VDT,2023.2.3,120.34255080046589,2024-04-25 13h37.19.614144 +0200,
./images_beh/Sphere_CCW-1.5_BG-grey_stim-white.png,0,46,46,46,52.136355819995515,,,,,,,,,,52.10677988099633,52.173320174973924,52.173320174973924,52.92402963200584,52.9181196729769,53.10904504801147,None,0,,,,,sub-003,ses-control-bqse-z-2,run-1,grey,2024-04-25_13h36.59.734,VDT,2023.2.3,120.34255080046589,2024-04-25 13h37.19.614144 +0200,
./images_beh/Sphere_CW-1.5_BG-grey_stim-white.png,0,47,47,47,53.15580054500606,,,,,,,,,,53.10964518197579,53.17315485497238,53.17315485497238,53.92198813997675,53.91718382696854,54.13956195098581,None,0,,,,,sub-003,ses-control-bqse-z-2,run-1,grey,2024-04-25_13h36.59.734,VDT,2023.2.3,120.34255080046589,2024-04-25 13h37.19.614144 +0200,
./images_beh/Sphere_CW-1.5_BG-grey_stim-yellow.png,0,48,48,48,54.172555632016156,,,,,,,,,,54.13984709198121,54.1835716139758,54.1835716139758,54.917172189976554,54.92326280497946,55.10756896500243,['space'],0,0.3195449179620482,None,,,sub-003,ses-control-bqse-z-2,run-1,grey,2024-04-25_13h36.59.734,VDT,2023.2.3,120.34255080046589,2024-04-25 13h37.19.614144 +0200,
./images_beh/Sphere_CCW-1.5_BG-grey_stim-white.png,0,49,49,49,55.15301438397728,,,,,,,,,,55.108347932982724,55.17239190201508,55.17239190201508,55.923590128018986,55.916797671990935,56.139906943019014,None,0,,,,,sub-003,ses-control-bqse-z-2,run-1,grey,2024-04-25_13h36.59.734,VDT,2023.2.3,120.34255080046589,2024-04-25 13h37.19.614144 +0200,
./images_beh/Sphere_CCW-1.5_BG-grey_stim-white.png,0,50,50,50,56.18412820901722,,,,,,,,,,56.14049523702124,56.18412820901722,56.18412820901722,56.91611092200037,56.93282432499109,57.08978728699731,None,0,,,,,sub-003,ses-control-bqse-z-2,run-1,grey,2024-04-25_13h36.59.734,VDT,2023.2.3,120.34255080046589,2024-04-25 13h37.19.614144 +0200,
./images_beh/Sphere_Ref_BG-grey_stim-yellow.png,0,51,51,51,57.133479212003294,,,,,,,,,,57.09056178398896,57.172377458016854,57.172377458016854,57.922638583986554,57.91567486600252,58.10193933499977,['space'],0,0.3631026450311765,None,,,sub-003,ses-control-bqse-z-2,run-1,grey,2024-04-25_13h36.59.734,VDT,2023.2.3,120.34255080046589,2024-04-25 13h37.19.614144 +0200,
./images_beh/Sphere_CW-1.5_BG-grey_stim-white.png,0,52,52,52,58.147698974993546,,,,,,,,,,58.10290022200206,58.17074904800393,58.17074904800393,58.92422873398755,58.91575921099866,59.10019297001418,None,0,,,,,sub-003,ses-control-bqse-z-2,run-1,grey,2024-04-25_13h36.59.734,VDT,2023.2.3,120.34255080046589,2024-04-25 13h37.19.614144 +0200,
./images_beh/Sphere_CW-1.5_BG-grey_stim-white.png,0,53,53,53,59.147884013014846,,,,,,,,,,59.101073695987,59.171527830010746,59.171527830010746,59.92210517800413,59.91481775598368,60.12342695996631,None,0,,,,,sub-003,ses-control-bqse-z-2,run-1,grey,2024-04-25_13h36.59.734,VDT,2023.2.3,120.34255080046589,2024-04-25 13h37.19.614144 +0200,
./images_beh/Sphere_CCW-1.5_BG-grey_stim-white.png,0,54,54,54,60.17034255398903,,,,,,,,,,60.12415448599495,60.181034984998405,60.181034984998405,60.9226786000072,60.9226786000072,61.11613027000567,None,0,,,,,sub-003,ses-control-bqse-z-2,run-1,grey,2024-04-25_13h36.59.734,VDT,2023.2.3,120.34255080046589,2024-04-25 13h37.19.614144 +0200,
./images_beh/Sphere_CW-1.5_BG-grey_stim-white.png,0,55,55,55,61.16326824598946,,,,,,,,,,61.11689031898277,61.168956976966,61.168956976966,61.93366913701175,61.916589138971176,62.122007110971026,None,0,,,,,sub-003,ses-control-bqse-z-2,run-1,grey,2024-04-25_13h36.59.734,VDT,2023.2.3,120.34255080046589,2024-04-25 13h37.19.614144 +0200,
./images_beh/Sphere_CCW-1.5_BG-grey_stim-yellow.png,0,56,56,56,62.1667472809786,,,,,,,,,,62.12259796500439,62.17993371700868,62.17993371700868,62.91986826300854,62.91986826300854,63.10509866598295,['space'],0,0.3557717460207641,None,,,sub-003,ses-control-bqse-z-2,run-1,grey,2024-04-25_13h36.59.734,VDT,2023.2.3,120.34255080046589,2024-04-25 13h37.19.614144 +0200,
./images_beh/Sphere_CCW-1.5_BG-grey_stim-white.png,0,57,57,57,63.15270720998524,,,,,,,,,,63.10625676100608,63.16896269097924,63.16896269097924,63.929842383018695,63.929842383018695,64.14780094398884,None,0,,,,,sub-003,ses-control-bqse-z-2,run-1,grey,2024-04-25_13h36.59.734,VDT,2023.2.3,120.34255080046589,2024-04-25 13h37.19.614144 +0200,
./images_beh/Sphere_Ref_BG-grey_stim-white.png,0,58,58,58,64.19640671298839,,,,,,,,,,64.14860382396728,64.19640671298839,64.19640671298839,64.92137041396927,64.93621934700059,65.11699901596876,None,0,,,,,sub-003,ses-control-bqse-z-2,run-1,grey,2024-04-25_13h36.59.734,VDT,2023.2.3,120.34255080046589,2024-04-25 13h37.19.614144 +0200,
./images_beh/Sphere_CW-1.5_BG-grey_stim-white.png,0,59,59,59,65.14816013397649,,,,,,,,,,65.11736302997451,65.16635806998238,65.16635806998238,65.92860024102265,65.91444192896597,66.1463312060223,None,0,,,,,sub-003,ses-control-bqse-z-2,run-1,grey,2024-04-25_13h36.59.734,VDT,2023.2.3,120.34255080046589,2024-04-25 13h37.19.614144 +0200,
./images_beh/Sphere_CCW-1.5_BG-grey_stim-white.png,0,60,60,60,66.19483214901993,,,,,,,,,,66.14767856901744,66.19483214901993,66.19483214901993,66.91925929998979,66.93473225599155,67.11226085899398,None,0,,,,,sub-003,ses-control-bqse-z-2,run-1,grey,2024-04-25_13h36.59.734,VDT,2023.2.3,120.34255080046589,2024-04-25 13h37.19.614144 +0200,
./images_beh/Sphere_CW-1.5_BG-grey_stim-white.png,0,61,61,61,67.15696301701246,,,,,,,,,,67.11319118499523,67.16165240999544,67.16165240999544,67.91885916801402,67.91083981096745,68.09724445897155,None,0,,,,,sub-003,ses-control-bqse-z-2,run-1,grey,2024-04-25_13h36.59.734,VDT,2023.2.3,120.34255080046589,2024-04-25 13h37.19.614144 +0200,
./images_beh/Sphere_CW-1.5_BG-grey_stim-yellow.png,0,62,62,62,68.14208235300612,,,,,,,,,,68.09799480601214,68.16610370099079,68.16610370099079,68.91760120401159,68.91028555500088,69.13495615898864,['space'],0,0.3307413890142925,None,,,sub-003,ses-control-bqse-z-2,run-1,grey,2024-04-25_13h36.59.734,VDT,2023.2.3,120.34255080046589,2024-04-25 13h37.19.614144 +0200,
./images_beh/Sphere_CCW-1.5_BG-grey_stim-white.png,0,63,63,63,69.18334271101048,,,,,,,,,,69.13589912099997,69.18334271101048,69.18334271101048,69.91779898997629,69.92660072096623,70.10122810502071,None,0,,,,,sub-003,ses-control-bqse-z-2,run-1,grey,2024-04-25_13h36.59.734,VDT,2023.2.3,120.34255080046589,2024-04-25 13h37.19.614144 +0200,
./images_beh/Sphere_CCW-1.5_BG-grey_stim-white.png,0,64,64,64,70.14415798097616,,,,,,,,,,70.10181222099345,70.1654589069658,70.1654589069658,70.92845002101967,70.91218755097361,71.14416433597216,None,0,,,,,sub-003,ses-control-bqse-z-2,run-1,grey,2024-04-25_13h36.59.734,VDT,2023.2.3,120.34255080046589,2024-04-25 13h37.19.614144 +0200,
./images_beh/Sphere_Ref_BG-grey_stim-yellow.png,0,65,65,65,71.19159594801022,,,,,,,,,,71.1450210629846,71.19159594801022,71.19159594801022,71.925463468011,71.93243859201903,72.14971133397194,['space'],0,0.3914855079492554,None,,,sub-003,ses-control-bqse-z-2,run-1,grey,2024-04-25_13h36.59.734,VDT,2023.2.3,120.34255080046589,2024-04-25 13h37.19.614144 +0200,
./images_beh/Sphere_CW-1.5_BG-grey_stim-white.png,0,66,66,66,72.19524365197867,,,,,,,,,,72.15079138800502,72.19524365197867,72.19524365197867,72.915808862017,72.94142063998152,73.11421024298761,None,0,,,,,sub-003,ses-control-bqse-z-2,run-1,grey,2024-04-25_13h36.59.734,VDT,2023.2.3,120.34255080046589,2024-04-25 13h37.19.614144 +0200,
./images_beh/Sphere_CW-1.5_BG-grey_stim-white.png,0,67,67,67,73.1484566279687,,,,,,,,,,73.11459458898753,73.16424919298152,73.16424919298152,73.91433771996526,73.90775948500959,74.09223497996572,None,0,,,,,sub-003,ses-control-bqse-z-2,run-1,grey,2024-04-25_13h36.59.734,VDT,2023.2.3,120.34255080046589,2024-04-25 13h37.19.614144 +0200,
./images_beh/Sphere_Ref_BG-grey_stim-yellow.png,0,68,68,68,74.1386883489904,,,,,,,,,,74.09343718201853,74.1634680069983,74.1634680069983,74.91465840296587,74.90744478598936,75.09196881297976,['space'],0,0.37951115297619253,None,,,sub-003,ses-control-bqse-z-2,run-1,grey,2024-04-25_13h36.59.734,VDT,2023.2.3,120.34255080046589,2024-04-25 13h37.19.614144 +0200,
./images_beh/Sphere_CCW-1.5_BG-grey_stim-white.png,0,69,69,69,75.13607389398385,,,,,,,,,,75.09295362501871,75.16239319602028,75.16239319602028,75.91409756598296,75.90665459202137,76.09835618699435,None,0,,,,,sub-003,ses-control-bqse-z-2,run-1,grey,2024-04-25_13h36.59.734,VDT,2023.2.3,120.34255080046589,2024-04-25 13h37.19.614144 +0200,
./images_beh/Sphere_CW-1.5_BG-grey_stim-white.png,0,70,70,70,76.1428443879704,,,,,,,,,,76.0989380190149,76.16233390301932,76.16233390301932,76.91410928202095,76.90650628897129,77.13102705898928,None,0,,,,,sub-003,ses-control-bqse-z-2,run-1,grey,2024-04-25_13h36.59.734,VDT,2023.2.3,120.34255080046589,2024-04-25 13h37.19.614144 +0200,
./images_beh/Sphere_Ref_BG-grey_stim-white.png,0,71,71,71,77.17973397800233,,,,,,,,,,77.13174300896935,77.17973397800233,77.17973397800233,77.92488507297821,77.93915163399652,78.13056403101655,None,0,,,,,sub-003,ses-control-bqse-z-2,run-1,grey,2024-04-25_13h36.59.734,VDT,2023.2.3,120.34255080046589,2024-04-25 13h37.19.614144 +0200,
./images_beh/Sphere_Ref_BG-grey_stim-white.png,0,72,72,72,78.17741386097623,,,,,,,,,,78.13136820698855,78.17741386097623,78.17741386097623,78.92190651601413,78.92190651601413,79.15614119701786,None,0,,,,,sub-003,ses-control-bqse-z-2,run-1,grey,2024-04-25_13h36.59.734,VDT,2023.2.3,120.34255080046589,2024-04-25 13h37.19.614144 +0200,
./images_beh/Sphere_CCW-1.5_BG-grey_stim-white.png,0,73,73,73,79.20098851498915,,,,,,,,,,79.1571868120227,79.20098851498915,79.20098851498915,79.92144813598134,79.94447417696938,80.1726060899673,None,0,,,,80.17137170297792,sub-003,ses-control-bqse-z-2,run-1,grey,2024-04-25_13h36.59.734,VDT,2023.2.3,120.34255080046589,2024-04-25 13h37.19.614144 +0200,
./images_beh/Sphere_Ref_BG-grey_stim-yellow.png,0,74,74,74,80.21885058400221,,,,,,,,,,80.17353936901782,80.21885058400221,80.21885058400221,80.92095868202159,80.95995913201477,81.17721809900831,['space'],0,0.36482385004637763,None,,81.1602820889675,sub-003,ses-control-bqse-z-2,run-1,grey,2024-04-25_13h36.59.734,VDT,2023.2.3,120.34255080046589,2024-04-25 13h37.19.614144 +0200,
./images_beh/Sphere_Ref_BG-grey_stim-white.png,0,75,75,75,81.22503800597042,,,,,,,,,,81.17814986599842,81.22503800597042,81.22503800597042,81.91991327301366,81.97016605501994,82.14044838497648,None,0,,,,,sub-003,ses-control-bqse-z-2,run-1,grey,2024-04-25_13h36.59.734,VDT,2023.2.3,120.34255080046589,2024-04-25 13h37.19.614144 +0200,
./images_beh/Sphere_CW-1.5_BG-grey_stim-white.png,0,76,76,76,82.18851633399026,,,,,,,,,,82.14119353797287,82.18851633399026,82.18851633399026,82.91949979698984,82.9365206870134,83.13749066600576,None,0,,,,,sub-003,ses-control-bqse-z-2,run-1,grey,2024-04-25_13h36.59.734,VDT,2023.2.3,120.34255080046589,2024-04-25 13h37.19.614144 +0200,
./images_beh/Sphere_CCW-1.5_BG-grey_stim-white.png,0,77,77,77,83.18516992399236,,,,,,,,,,83.13878936797846,83.18516992399236,83.18516992399236,83.91934736497933,83.9264255000162,84.11148854898056,None,0,,,,,sub-003,ses-control-bqse-z-2,run-1,grey,2024-04-25_13h36.59.734,VDT,2023.2.3,120.34255080046589,2024-04-25 13h37.19.614144 +0200,
./images_beh/Sphere_CCW-1.5_BG-grey_stim-yellow.png,0,78,78,78,84.16187746298965,,,,,,,,,,84.11221169796772,84.16891970101278,84.16891970101278,84.93573376396671,84.92097439500503,85.12584353500279,['space'],0,0.3992324440041557,None,,,sub-003,ses-control-bqse-z-2,run-1,grey,2024-04-25_13h36.59.734,VDT,2023.2.3,120.34255080046589,2024-04-25 13h37.19.614144 +0200,
./images_beh/Sphere_CW-1.5_BG-grey_stim-white.png,0,79,79,79,85.17217813397292,,,,,,,,,,85.1268021229771,85.17217813397292,85.17217813397292,85.91793421696639,85.91793421696639,86.12502961599967,None,0,,,,,sub-003,ses-control-bqse-z-2,run-1,grey,2024-04-25_13h36.59.734,VDT,2023.2.3,120.34255080046589,2024-04-25 13h37.19.614144 +0200,
./images_beh/Sphere_CCW-1.5_BG-grey_stim-white.png,0,80,80,80,86.17062452097889,,,,,,,,,,86.12575495801866,86.17062452097889,86.17062452097889,86.91842242900748,86.91842242900748,87.10208203800721,None,0,,,,,sub-003,ses-control-bqse-z-2,run-1,grey,2024-04-25_13h36.59.734,VDT,2023.2.3,120.34255080046589,2024-04-25 13h37.19.614144 +0200,
./images_beh/Sphere_Ref_BG-grey_stim-yellow.png,0,81,81,81,87.1481647429755,,,,,,,,,,87.10326801799238,87.17313017201377,87.17313017201377,87.9170630669687,87.9170630669687,88.1680026089889,['space'],0,0.39560444897506386,None,88.16714467899874,88.15570441097952,sub-003,ses-control-bqse-z-2,run-1,grey,2024-04-25_13h36.59.734,VDT,2023.2.3,120.34255080046589,2024-04-25 13h37.19.614144 +0200,
./images_beh/Sphere_CW-1.5_BG-grey_stim-white.png,0,82,82,82,88.21403025096515,,,,,,,,,,88.16943461901974,88.21403025096515,88.21403025096515,88.91668925096747,88.95622556598391,89.13429257198004,None,0,,,,,sub-003,ses-control-bqse-z-2,run-1,grey,2024-04-25_13h36.59.734,VDT,2023.2.3,120.34255080046589,2024-04-25 13h37.19.614144 +0200,
./images_beh/Sphere_CCW-1.5_BG-grey_stim-white.png,0,83,83,83,89.18200700101443,,,,,,,,,,89.13575283897808,89.18200700101443,89.18200700101443,89.92286263802089,89.92286263802089,90.10699331702199,None,0,,,,,sub-003,ses-control-bqse-z-2,run-1,grey,2024-04-25_13h36.59.734,VDT,2023.2.3,120.34255080046589,2024-04-25 13h37.19.614144 +0200,
./images_beh/Sphere_CW-1.5_BG-grey_stim-white.png,0,84,84,84,90.15453071700176,,,,,,,,,,90.10770923696691,90.17173360596644,90.17173360596644,90.91586910397746,90.91586910397746,91.08944183099084,None,0,,,,,sub-003,ses-control-bqse-z-2,run-1,grey,2024-04-25_13h36.59.734,VDT,2023.2.3,120.34255080046589,2024-04-25 13h37.19.614144 +0200,
./images_beh/Sphere_CCW-1.5_BG-grey_stim-white.png,0,85,85,85,91.13352785701863,,,,,,,,,,91.09019558998989,91.17147241596831,91.17147241596831,91.91523439798038,91.91523439798038,92.20237472897861,None,0,,,92.1847527520149,92.16769801598275,sub-003,ses-control-bqse-z-2,run-1,grey,2024-04-25_13h36.59.734,VDT,2023.2.3,120.34255080046589,2024-04-25 13h37.19.614144 +0200,
./images_beh/Sphere_CW-1.5_BG-grey_stim-yellow.png,0,86,86,86,92.25138513499405,,,,,,,,,,92.20310018898454,92.25138513499405,92.25138513499405,92.921895624022,92.99803599400911,93.10129603999667,['space'],0,0.41187108401209116,None,,,sub-003,ses-control-bqse-z-2,run-1,grey,2024-04-25_13h36.59.734,VDT,2023.2.3,120.34255080046589,2024-04-25 13h37.19.614144 +0200,
./images_beh/Sphere_CW-1.5_BG-grey_stim-white.png,0,87,87,87,93.14834131702082,,,,,,,,,,93.10226504696766,93.17142946500098,93.17142946500098,93.92100358597236,93.92100358597236,94.16761055099778,None,0,,,94.16682181000942,94.16682181000942,sub-003,ses-control-bqse-z-2,run-1,grey,2024-04-25_13h36.59.734,VDT,2023.2.3,120.34255080046589,2024-04-25 13h37.19.614144 +0200,
./images_beh/Sphere_CW-1.5_BG-grey_stim-white.png,0,88,88,88,94.21458621596685,,,,,,,,,,94.16833969199797,94.21458621596685,94.21458621596685,94.92228696297389,94.95404037396656,95.08769514400046,None,0,,,,,sub-003,ses-control-bqse-z-2,run-1,grey,2024-04-25_13h36.59.734,VDT,2023.2.3,120.34255080046589,2024-04-25 13h37.19.614144 +0200,
./images_beh/Sphere_CCW-1.5_BG-grey_stim-white.png,0,89,89,89,95.1332457899698,,,,,,,,,,95.08827966899844,95.17036170797655,95.17036170797655,95.91964179498609,95.91319918999216,96.12041772599332,None,0,,,,,sub-003,ses-control-bqse-z-2,run-1,grey,2024-04-25_13h36.59.734,VDT,2023.2.3,120.34255080046589,2024-04-25 13h37.19.614144 +0200,
./images_beh/Sphere_CCW-1.5_BG-grey_stim-white.png,0,90,90,90,96.1671242369921,,,,,,,,,,96.12113995099207,96.17950947600184,96.17950947600184,96.92015432601329,96.92015432601329,97.16426949499873,None,0,,,,97.16285792598501,sub-003,ses-control-bqse-z-2,run-1,grey,2024-04-25_13h36.59.734,VDT,2023.2.3,120.34255080046589,2024-04-25 13h37.19.614144 +0200,
./images_beh/Sphere_CW-1.5_BG-grey_stim-white.png,0,91,91,91,97.21063120500185,,,,,,,,,,97.16501163697103,97.21063120500185,97.21063120500185,97.92092768498696,97.95311544899596,98.13558758801082,None,0,,,,,sub-003,ses-control-bqse-z-2,run-1,grey,2024-04-25_13h36.59.734,VDT,2023.2.3,120.34255080046589,2024-04-25 13h37.19.614144 +0200,
./images_beh/Sphere_CW-1.5_BG-grey_stim-white.png,0,92,92,92,98.1796377680148,,,,,,,,,,98.13617244397756,98.1796377680148,98.1796377680148,98.91978147800546,98.92842254898278,99.08668421499897,None,0,,,,,sub-003,ses-control-bqse-z-2,run-1,grey,2024-04-25_13h36.59.734,VDT,2023.2.3,120.34255080046589,2024-04-25 13h37.19.614144 +0200,
./images_beh/Sphere_Ref_BG-grey_stim-yellow.png,0,93,93,93,99.13718044996494,,,,,,,,,,99.08741239097435,99.1677554990165,99.1677554990165,99.91864458099008,99.91160487401066,100.12942100100918,['space'],0,0.36725916096474975,None,,,sub-003,ses-control-bqse-z-2,run-1,grey,2024-04-25_13h36.59.734,VDT,2023.2.3,120.34255080046589,2024-04-25 13h37.19.614144 +0200,
./images_beh/Sphere_CCW-1.5_BG-grey_stim-white.png,0,94,94,94,100.17645448900294,,,,,,,,,,100.13076934497803,100.17645448900294,100.17645448900294,100.91781599400565,100.91781599400565,101.09484618500574,None,0,,,,,sub-003,ses-control-bqse-z-2,run-1,grey,2024-04-25_13h36.59.734,VDT,2023.2.3,120.34255080046589,2024-04-25 13h37.19.614144 +0200,
./images_beh/Sphere_CW-1.5_BG-grey_stim-white.png,0,95,95,95,101.14268391899532,,,,,,,,,,101.09619447297882,101.16660897800466,101.16660897800466,101.91741133696632,101.91012416000012,102.13416242599487,None,0,,,,,sub-003,ses-control-bqse-z-2,run-1,grey,2024-04-25_13h36.59.734,VDT,2023.2.3,120.34255080046589,2024-04-25 13h37.19.614144 +0200,
./images_beh/Sphere_CW-1.5_BG-grey_stim-yellow.png,0,96,96,96,102.18112134200055,,,,,,,,,,102.1348811360076,102.18112134200055,102.18112134200055,102.92690624401439,102.93369391001761,103.09937907697167,['space'],0,0.33130595000693575,None,,,sub-003,ses-control-bqse-z-2,run-1,grey,2024-04-25_13h36.59.734,VDT,2023.2.3,120.34255080046589,2024-04-25 13h37.19.614144 +0200,
./images_beh/Sphere_CCW-1.5_BG-grey_stim-white.png,0,97,97,97,103.14473602396902,,,,,,,,,,103.1001499890117,103.1653269410017,103.1653269410017,103.91611531598028,103.90930913301418,104.11243394500343,None,0,,,,,sub-003,ses-control-bqse-z-2,run-1,grey,2024-04-25_13h36.59.734,VDT,2023.2.3,120.34255080046589,2024-04-25 13h37.19.614144 +0200,
./images_beh/Sphere_CCW-1.5_BG-grey_stim-white.png,0,98,98,98,104.16060325701255,,,,,,,,,,104.11327525298111,104.1755780170206,104.1755780170206,104.91377641697181,104.91377641697181,105.14194550801767,None,0,,,,,sub-003,ses-control-bqse-z-2,run-1,grey,2024-04-25_13h36.59.734,VDT,2023.2.3,120.34255080046589,2024-04-25 13h37.19.614144 +0200,
./images_beh/Sphere_Ref_BG-grey_stim-white.png,0,99,99,99,105.17976673599333,,,,,,,,,,105.14272026100662,105.17976673599333,105.17976673599333,105.91347156901611,105.92438702099025,106.1301296930178,None,0,,,,,sub-003,ses-control-bqse-z-2,run-1,grey,2024-04-25_13h36.59.734,VDT,2023.2.3,120.34255080046589,2024-04-25 13h37.19.614144 +0200,
./images_beh/Sphere_CCW-1.5_BG-grey_stim-white.png,0,100,100,100,106.16553165798541,,,,,,,,,,106.13042075699195,106.17432197299786,106.17432197299786,106.91301401797682,106.91301401797682,107.10762710496783,None,0,,,,,sub-003,ses-control-bqse-z-2,run-1,grey,2024-04-25_13h36.59.734,VDT,2023.2.3,120.34255080046589,2024-04-25 13h37.19.614144 +0200,
./images_beh/Sphere_Ref_BG-grey_stim-white.png,0,101,101,101,107.1412618960021,,,,,,,,,,107.10811961296713,107.16235585801769,107.16235585801769,107.91178445197875,107.90648287901422,108.12375451996922,None,0,,,,,sub-003,ses-control-bqse-z-2,run-1,grey,2024-04-25_13h36.59.734,VDT,2023.2.3,120.34255080046589,2024-04-25 13h37.19.614144 +0200,
./images_beh/Sphere_Ref_BG-grey_stim-yellow.png,0,102,102,102,108.16192499396857,,,,,,,,,,108.12436022202019,108.16192499396857,108.16192499396857,108.92253184202127,108.90613819099963,109.11193346499931,['space'],0,0.3269307130249217,None,,,sub-003,ses-control-bqse-z-2,run-1,grey,2024-04-25_13h36.59.734,VDT,2023.2.3,120.34255080046589,2024-04-25 13h37.19.614144 +0200,
./images_beh/Sphere_CW-1.5_BG-grey_stim-white.png,0,103,103,103,109.14890293398639,,,,,,,,,,109.11241562798386,109.17268842901103,109.17268842901103,109.92259433999425,109.91166579897981,110.12372133199824,None,0,,,,,sub-003,ses-control-bqse-z-2,run-1,grey,2024-04-25_13h36.59.734,VDT,2023.2.3,120.34255080046589,2024-04-25 13h37.19.614144 +0200,
./images_beh/Sphere_CW-1.5_BG-grey_stim-white.png,0,104,104,104,110.16900814301334,,,,,,,,,,110.12459888897138,110.18867612397298,110.18867612397298,110.92416372697335,110.93896921002306,111.162346254976,None,0,,,,,sub-003,ses-control-bqse-z-2,run-1,grey,2024-04-25_13h36.59.734,VDT,2023.2.3,120.34255080046589,2024-04-25 13h37.19.614144 +0200,
./images_beh/Sphere_CCW-1.5_BG-grey_stim-yellow.png,0,105,105,105,111.2083564089844,,,,,,,,,,111.16299500101013,111.2083564089844,111.2083564089844,111.92167404701468,111.95485433802241,112.11282719601877,['space'],0,0.432495731045492,None,,,sub-003,ses-control-bqse-z-2,run-1,grey,2024-04-25_13h36.59.734,VDT,2023.2.3,120.34255080046589,2024-04-25 13h37.19.614144 +0200,
./images_beh/Sphere_CCW-1.5_BG-grey_stim-white.png,0,106,106,106,112.16488486801973,,,,,,,,,,112.11406280798838,112.17117802397115,112.17117802397115,112.92095450899797,112.90999655198539,113.1112575950101,None,0,,,,,sub-003,ses-control-bqse-z-2,run-1,grey,2024-04-25_13h36.59.734,VDT,2023.2.3,120.34255080046589,2024-04-25 13h37.19.614144 +0200,
./images_beh/Sphere_CW-1.5_BG-grey_stim-white.png,0,107,107,107,113.152943418012,,,,,,,,,,113.1118437370169,113.17091902001994,113.17091902001994,113.92064021201804,113.90921320999041,114.1216022860026,None,0,,,,,sub-003,ses-control-bqse-z-2,run-1,grey,2024-04-25_13h36.59.734,VDT,2023.2.3,120.34255080046589,2024-04-25 13h37.19.614144 +0200,
./images_beh/Sphere_Ref_BG-grey_stim-white.png,0,108,108,108,114.16443389496999,,,,,,,,,,114.12222356698476,114.17001122096553,114.17001122096553,114.92251656198641,114.90974146296503,115.13759083696641,None,0,,,,,sub-003,ses-control-bqse-z-2,run-1,grey,2024-04-25_13h36.59.734,VDT,2023.2.3,120.34255080046589,2024-04-25 13h37.19.614144 +0200,
./images_beh/Sphere_CCW-1.5_BG-grey_stim-white.png,0,109,109,109,115.18531323596835,,,,,,,,,,115.13872117199935,115.18531323596835,115.18531323596835,115.91974950296571,115.92611700796988,116.10398367897142,None,0,,,,,sub-003,ses-control-bqse-z-2,run-1,grey,2024-04-25_13h36.59.734,VDT,2023.2.3,120.34255080046589,2024-04-25 13h37.19.614144 +0200,
./images_beh/Sphere_Ref_BG-grey_stim-yellow.png,0,110,110,110,116.149737574975,,,,,,,,,,116.1048008009675,116.17555861297296,116.17555861297296,116.91910112998448,116.91910112998448,117.08695260196691,['space'],0,0.4073543259873986,None,,,sub-003,ses-control-bqse-z-2,run-1,grey,2024-04-25_13h36.59.734,VDT,2023.2.3,120.34255080046589,2024-04-25 13h37.19.614144 +0200,
./images_beh/Sphere_CCW-1.5_BG-grey_stim-white.png,0,111,111,111,117.13122714799829,,,,,,,,,,117.08810890896711,117.16874888900202,117.16874888900202,117.91882220801199,117.90727899898775,118.12519985501422,None,0,,,,,sub-003,ses-control-bqse-z-2,run-1,grey,2024-04-25_13h36.59.734,VDT,2023.2.3,120.34255080046589,2024-04-25 13h37.19.614144 +0200,
./images_beh/Sphere_CW-1.5_BG-grey_stim-white.png,0,112,112,112,118.16985058301361,,,,,,,,,,118.12578340800246,118.16985058301361,118.16985058301361,118.91795890498906,118.91795890498906,119.14164619497024,None,0,,,,,sub-003,ses-control-bqse-z-2,run-1,grey,2024-04-25_13h36.59.734,VDT,2023.2.3,120.34255080046589,2024-04-25 13h37.19.614144 +0200,
./images_beh/Sphere_Ref_BG-grey_stim-yellow.png,0,113,113,113,119.187261959014,,,,,,,,,,119.14232329197694,119.187261959014,119.187261959014,119.92004675598582,119.93406164296903,120.10888666799292,['space'],0,0.4039597770315595,None,,,sub-003,ses-control-bqse-z-2,run-1,grey,2024-04-25_13h36.59.734,VDT,2023.2.3,120.34255080046589,2024-04-25 13h37.19.614144 +0200,
./images_beh/Sphere_CW-1.5_BG-grey_stim-white.png,0,114,114,114,120.1576639849809,,,,,,,,,,120.10989767697174,120.1673684840207,120.1673684840207,120.91707611398306,120.9068566589849,121.10152520099655,None,0,,,,,sub-003,ses-control-bqse-z-2,run-1,grey,2024-04-25_13h36.59.734,VDT,2023.2.3,120.34255080046589,2024-04-25 13h37.19.614144 +0200,
./images_beh/Sphere_CCW-1.5_BG-grey_stim-white.png,0,115,115,115,121.14469550701324,,,,,,,,,,121.10216857900377,121.17226407199632,121.17226407199632,121.91661840700544,121.91661840700544,122.09057914698496,None,0,,,,,sub-003,ses-control-bqse-z-2,run-1,grey,2024-04-25_13h36.59.734,VDT,2023.2.3,120.34255080046589,2024-04-25 13h37.19.614144 +0200,
./images_beh/Sphere_CW-1.5_BG-grey_stim-white.png,0,116,116,116,122.13707674801117,,,,,,,,,,122.09131666796748,122.17282595299184,122.17282595299184,122.9231933230185,122.9231933230185,123.15059914701851,None,0,,,,,sub-003,ses-control-bqse-z-2,run-1,grey,2024-04-25_13h36.59.734,VDT,2023.2.3,120.34255080046589,2024-04-25 13h37.19.614144 +0200,
./images_beh/Sphere_CCW-1.5_BG-grey_stim-yellow.png,0,117,117,117,123.19750972598558,,,,,,,,,,123.15143704100046,123.19750972598558,123.19750972598558,123.92305385699729,123.93891206698027,124.1328345949878,['space'],0,0.35412342799827456,None,,,sub-003,ses-control-bqse-z-2,run-1,grey,2024-04-25_13h36.59.734,VDT,2023.2.3,120.34255080046589,2024-04-25 13h37.19.614144 +0200,
./images_beh/Sphere_CCW-1.5_BG-grey_stim-white.png,0,118,118,118,124.17906801501522,,,,,,,,,,124.1343522539828,124.17906801501522,124.17906801501522,124.92051124101272,124.92051124101272,125.08731010800693,None,0,,,,,sub-003,ses-control-bqse-z-2,run-1,grey,2024-04-25_13h36.59.734,VDT,2023.2.3,120.34255080046589,2024-04-25 13h37.19.614144 +0200,
./images_beh/Sphere_CW-1.5_BG-grey_stim-white.png,0,119,119,119,125.12638477201108,,,,,,,,,,125.08780012797797,125.17052539600991,125.17052539600991,125.92173152096802,125.9147974519874,126.1325632109656,None,0,,,,,sub-003,ses-control-bqse-z-2,run-1,grey,2024-04-25_13h36.59.734,VDT,2023.2.3,120.34255080046589,2024-04-25 13h37.19.614144 +0200,
./images_beh/Sphere_Ref_BG-grey_stim-white.png,0,120,120,120,126.18204486597097,,,,,,,,,,126.13372490397887,126.18204486597097,126.18204486597097,126.92220954800723,126.93056909396546,127.13213641801849,None,0,,,,,sub-003,ses-control-bqse-z-2,run-1,grey,2024-04-25_13h36.59.734,VDT,2023.2.3,120.34255080046589,2024-04-25 13h37.19.614144 +0200,
./images_beh/Sphere_CCW-1.5_BG-grey_stim-white.png,0,121,121,121,127.1814969520201,,,,,,,,,,127.13328281900613,127.1814969520201,127.1814969520201,127.92232246499043,127.93018064100761,128.114945008012,None,0,,,,,sub-003,ses-control-bqse-z-2,run-1,grey,2024-04-25_13h36.59.734,VDT,2023.2.3,120.34255080046589,2024-04-25 13h37.19.614144 +0200,
./images_beh/Sphere_CW-1.5_BG-grey_stim-yellow.png,0,122,122,122,128.16127699997742,,,,,,,,,,128.11574660398765,128.16703748697182,128.16703748697182,128.91936975700082,128.91307960398262,129.1807748239953,['space'],0,0.36879624001448974,None,129.16318722598953,129.16318722598953,sub-003,ses-control-bqse-z-2,run-1,grey,2024-04-25_13h36.59.734,VDT,2023.2.3,120.34255080046589,2024-04-25 13h37.19.614144 +0200,
./images_beh/Sphere_CW-1.5_BG-grey_stim-white.png,0,123,123,123,129.2270059090224,,,,,,,,,,129.18188434001058,129.2270059090224,129.2270059090224,129.92016587901162,129.9696487779729,130.1213995940052,None,0,,,,,sub-003,ses-control-bqse-z-2,run-1,grey,2024-04-25_13h36.59.734,VDT,2023.2.3,120.34255080046589,2024-04-25 13h37.19.614144 +0200,
./images_beh/Sphere_CCW-1.5_BG-grey_stim-white.png,0,124,124,124,130.16844616597518,,,,,,,,,,130.12213396799052,130.1787378640147,130.1787378640147,130.9196437440114,130.9196437440114,131.08019132399932,None,0,,,,,sub-003,ses-control-bqse-z-2,run-1,grey,2024-04-25_13h36.59.734,VDT,2023.2.3,120.34255080046589,2024-04-25 13h37.19.614144 +0200,
./images_beh/Sphere_CW-1.5_BG-grey_stim-white.png,0,125,125,125,131.1280350019806,,,,,,,,,,131.08099952997873,131.16859961498994,131.16859961498994,131.9286273129983,131.9141239739838,132.15278054197552,None,0,,,,,sub-003,ses-control-bqse-z-2,run-1,grey,2024-04-25_13h36.59.734,VDT,2023.2.3,120.34255080046589,2024-04-25 13h37.19.614144 +0200,
./images_beh/Sphere_CCW-1.5_BG-grey_stim-white.png,0,126,126,126,132.20152484899154,,,,,,,,,,132.15351262298645,132.20152484899154,132.20152484899154,132.91868873802014,132.94429208000656,133.16207518999,None,0,,,,,sub-003,ses-control-bqse-z-2,run-1,grey,2024-04-25_13h36.59.734,VDT,2023.2.3,120.34255080046589,2024-04-25 13h37.19.614144 +0200,
./images_beh/Sphere_CCW-1.5_BG-grey_stim-white.png,0,127,127,127,133.20953774801455,,,,,,,,,,133.1631104319822,133.20953774801455,133.20953774801455,133.91885913402075,133.95097418199293,134.11149306601146,None,0,,,,,sub-003,ses-control-bqse-z-2,run-1,grey,2024-04-25_13h36.59.734,VDT,2023.2.3,120.34255080046589,2024-04-25 13h37.19.614144 +0200,
./images_beh/Sphere_Ref_BG-grey_stim-yellow.png,0,128,128,128,134.15802939899731,,,,,,,,,,134.1124729369767,134.16331413399894,134.16331413399894,134.92652638198342,134.9125863579684,135.09675316896755,['space'],0,0.4127908360096626,None,,,sub-003,ses-control-bqse-z-2,run-1,grey,2024-04-25_13h36.59.734,VDT,2023.2.3,120.34255080046589,2024-04-25 13h37.19.614144 +0200,
./images_beh/Sphere_CW-1.5_BG-grey_stim-white.png,0,129,129,129,135.14388147299178,,,,,,,,,,135.09769309399417,135.16531509900233,135.16531509900233,135.91642898600549,135.90944837697316,136.1273270350066,None,0,,,,,sub-003,ses-control-bqse-z-2,run-1,grey,2024-04-25_13h36.59.734,VDT,2023.2.3,120.34255080046589,2024-04-25 13h37.19.614144 +0200,
./images_beh/Sphere_CCW-1.5_BG-grey_stim-white.png,0,130,130,130,136.17711513402173,,,,,,,,,,136.12818544497713,136.17711513402173,136.17711513402173,136.9175471700146,136.92578444996616,137.11041775898775,None,0,,,,,sub-003,ses-control-bqse-z-2,run-1,grey,2024-04-25_13h36.59.734,VDT,2023.2.3,120.34255080046589,2024-04-25 13h37.19.614144 +0200,
./images_beh/Sphere_CW-1.5_BG-grey_stim-white.png,0,131,131,131,137.15758496697526,,,,,,,,,,137.11121821199777,137.16405382100493,137.16405382100493,137.91536292200908,137.9085345590138,138.1431900690077,None,0,,,,,sub-003,ses-control-bqse-z-2,run-1,grey,2024-04-25_13h36.59.734,VDT,2023.2.3,120.34255080046589,2024-04-25 13h37.19.614144 +0200,
./images_beh/Sphere_CW-1.5_BG-grey_stim-yellow.png,0,132,132,132,138.19064064597478,,,,,,,,,,138.1439822819666,138.19064064597478,138.19064064597478,138.91525011498015,138.93077880999772,139.09226516500348,['space'],0,0.4024887459818274,None,,,sub-003,ses-control-bqse-z-2,run-1,grey,2024-04-25_13h36.59.734,VDT,2023.2.3,120.34255080046589,2024-04-25 13h37.19.614144 +0200,
./images_beh/Sphere_CW-1.5_BG-grey_stim-white.png,0,133,133,133,139.1400377479731,,,,,,,,,,139.09359652601415,139.16314617102034,139.16314617102034,139.91477975598536,139.9076591070043,140.14429170900257,None,0,,,,,sub-003,ses-control-bqse-z-2,run-1,grey,2024-04-25_13h36.59.734,VDT,2023.2.3,120.34255080046589,2024-04-25 13h37.19.614144 +0200,
./images_beh/Sphere_CW-1.5_BG-grey_stim-white.png,0,134,134,134,140.19291142199654,,,,,,,,,,140.1450214170036,140.19291142199654,140.19291142199654,140.91561718599405,140.94316728500417,141.1248510889709,None,0,,,,,sub-003,ses-control-bqse-z-2,run-1,grey,2024-04-25_13h36.59.734,VDT,2023.2.3,120.34255080046589,2024-04-25 13h37.19.614144 +0200,
./images_beh/Sphere_Ref_BG-grey_stim-yellow.png,0,135,135,135,141.1729337630095,,,,,,,,,,141.1256452620146,141.1729337630095,141.1729337630095,141.91349863098003,141.91349863098003,142.11033371998928,['space'],0,0.4028531619696878,None,,,sub-003,ses-control-bqse-z-2,run-1,grey,2024-04-25_13h36.59.734,VDT,2023.2.3,120.34255080046589,2024-04-25 13h37.19.614144 +0200,
./images_beh/Sphere_Ref_BG-grey_stim-white.png,0,136,136,136,142.15753033797955,,,,,,,,,,142.11130397598026,142.1725085899816,142.1725085899816,142.9225143059739,142.91150891501456,143.1261018519872,None,0,,,,,sub-003,ses-control-bqse-z-2,run-1,grey,2024-04-25_13h36.59.734,VDT,2023.2.3,120.34255080046589,2024-04-25 13h37.19.614144 +0200,
./images_beh/Sphere_CCW-1.5_BG-grey_stim-white.png,0,137,137,137,143.17556422099005,,,,,,,,,,143.12682539399248,143.17556422099005,143.17556422099005,143.92219916399335,143.92219916399335,144.14287078997586,None,0,,,,,sub-003,ses-control-bqse-z-2,run-1,grey,2024-04-25_13h36.59.734,VDT,2023.2.3,120.34255080046589,2024-04-25 13h37.19.614144 +0200,
./images_beh/Sphere_CCW-1.5_BG-grey_stim-white.png,0,138,138,138,144.19227597501595,,,,,,,,,,144.14478029002203,144.19227597501595,144.19227597501595,144.9217864649836,144.9383925339789,145.15603522001766,None,0,,,,,sub-003,ses-control-bqse-z-2,run-1,grey,2024-04-25_13h36.59.734,VDT,2023.2.3,120.34255080046589,2024-04-25 13h37.19.614144 +0200,
./images_beh/Sphere_CCW-1.5_BG-grey_stim-yellow.png,0,139,139,139,145.20449937297963,,,,,,,,,,145.1568775930209,145.20449937297963,145.20449937297963,145.9211261299788,145.9436766639701,146.16008271597093,['space'],0,0.45163146301638335,None,,146.15950264100684,sub-003,ses-control-bqse-z-2,run-1,grey,2024-04-25_13h36.59.734,VDT,2023.2.3,120.34255080046589,2024-04-25 13h37.19.614144 +0200,
./images_beh/Sphere_CCW-1.5_BG-grey_stim-white.png,0,140,140,140,146.20389885100303,,,,,,,,,,146.16075330897002,146.20389885100303,146.20389885100303,146.92081913200673,146.94296016701264,147.12823492800817,None,0,,,,,sub-003,ses-control-bqse-z-2,run-1,grey,2024-04-25_13h36.59.734,VDT,2023.2.3,120.34255080046589,2024-04-25 13h37.19.614144 +0200,
./images_beh/Sphere_Ref_BG-grey_stim-white.png,0,141,141,141,147.17341430601664,,,,,,,,,,147.1291991409962,147.17341430601664,147.17341430601664,147.92029054800514,147.92029054800514,148.1045816639671,None,0,,,,,sub-003,ses-control-bqse-z-2,run-1,grey,2024-04-25_13h36.59.734,VDT,2023.2.3,120.34255080046589,2024-04-25 13h37.19.614144 +0200,
./images_beh/Sphere_CW-1.5_BG-grey_stim-white.png,0,142,142,142,148.14904067997122,,,,,,,,,,148.10533529001987,148.1701738620177,148.1701738620177,148.93653677700786,148.92231667699525,149.10416921699652,None,0,,,,,sub-003,ses-control-bqse-z-2,run-1,grey,2024-04-25_13h36.59.734,VDT,2023.2.3,120.34255080046589,2024-04-25 13h37.19.614144 +0200,
./images_beh/Sphere_CW-1.5_BG-grey_stim-white.png,0,143,143,143,149.14956850296585,,,,,,,,,,149.10490588698303,149.16973535402212,149.16973535402212,149.9191620189813,149.90793665201636,150.15275627700612,None,0,,,,,sub-003,ses-control-bqse-z-2,run-1,grey,2024-04-25_13h36.59.734,VDT,2023.2.3,120.34255080046589,2024-04-25 13h37.19.614144 +0200,
./images_beh/Sphere_CW-1.5_BG-grey_stim-white.png,0,144,144,144,150.19315137399826,,,,,,,,,,150.15362972998992,150.19315137399826,150.19315137399826,150.91786947997753,150.93980620097136,151.1555410180008,None,0,,,,151.15502622601343,sub-003,ses-control-bqse-z-2,run-1,grey,2024-04-25_13h36.59.734,VDT,2023.2.3,120.34255080046589,2024-04-25 13h37.19.614144 +0200,
./images_beh/Sphere_CCW-1.5_BG-grey_stim-white.png,0,145,145,145,151.18964824301656,,,,,,,,,,151.15584892197512,151.18964824301656,151.18964824301656,151.9255443919683,151.93462281901157,152.0746891790186,None,0,,,,,sub-003,ses-control-bqse-z-2,run-1,grey,2024-04-25_13h36.59.734,VDT,2023.2.3,120.34255080046589,2024-04-25 13h37.19.614144 +0200,
./images_beh/Sphere_CCW-1.5_BG-grey_stim-yellow.png,0,146,146,146,152.12139875499997,,,,,,,,,,152.07541852397844,152.17317691497738,152.17317691497738,152.91759463300696,152.91759463300696,153.10151040600613,['space'],0,0.4502478380454704,None,,,sub-003,ses-control-bqse-z-2,run-1,grey,2024-04-25_13h36.59.734,VDT,2023.2.3,120.34255080046589,2024-04-25 13h37.19.614144 +0200,
./images_beh/Sphere_CW-1.5_BG-grey_stim-white.png,0,147,147,147,153.1469084820128,,,,,,,,,,153.1027667740127,153.17220790399006,153.17220790399006,153.9170481400215,153.9170481400215,154.15596442797687,None,0,,,,154.15512250101892,sub-003,ses-control-bqse-z-2,run-1,grey,2024-04-25_13h36.59.734,VDT,2023.2.3,120.34255080046589,2024-04-25 13h37.19.614144 +0200,
./images_beh/Sphere_CCW-1.5_BG-grey_stim-white.png,0,148,148,148,154.20230904297205,,,,,,,,,,154.15664251497947,154.20230904297205,154.20230904297205,154.91638731997227,154.94950800400693,155.16773235198343,None,0,,,,155.15550592099316,sub-003,ses-control-bqse-z-2,run-1,grey,2024-04-25_13h36.59.734,VDT,2023.2.3,120.34255080046589,2024-04-25 13h37.19.614144 +0200,
./images_beh/Sphere_CCW-1.5_BG-grey_stim-white.png,0,149,149,149,155.2179368819925,,,,,,,,,,155.16879605600843,155.2179368819925,155.2179368819925,155.92321805696702,155.96575269597815,156.1233702530153,None,0,,,,,sub-003,ses-control-bqse-z-2,run-1,grey,2024-04-25_13h36.59.734,VDT,2023.2.3,120.34255080046589,2024-04-25 13h37.19.614144 +0200,
./images_beh/Sphere_CCW-1.5_BG-grey_stim-white.png,0,150,150,150,156.1723669039784,,,,,,,,,,156.12415045697708,156.1822836860083,156.1822836860083,156.92200987797696,156.92200987797696,157.11604733899003,None,0,,,,,sub-003,ses-control-bqse-z-2,run-1,grey,2024-04-25_13h36.59.734,VDT,2023.2.3,120.34255080046589,2024-04-25 13h37.19.614144 +0200,
./images_beh/Sphere_Ref_BG-grey_stim-white.png,0,151,151,151,157.15738365997095,,,,,,,,,,157.11672855401412,157.16460521897534,157.16460521897534,157.92132352502085,157.90353337599663,158.09856040898012,None,0,,,,,sub-003,ses-control-bqse-z-2,run-1,grey,2024-04-25_13h36.59.734,VDT,2023.2.3,120.34255080046589,2024-04-25 13h37.19.614144 +0200,
./images_beh/Sphere_Ref_BG-grey_stim-yellow.png,0,152,152,152,158.14020686998265,,,,,,,,,,158.09948291198816,158.17091916297795,158.17091916297795,158.92102723999415,158.92102723999415,159.12250703497557,['space'],0,0.3804434090270661,None,,,sub-003,ses-control-bqse-z-2,run-1,grey,2024-04-25_13h36.59.734,VDT,2023.2.3,120.34255080046589,2024-04-25 13h37.19.614144 +0200,
./images_beh/Sphere_Ref_BG-grey_stim-white.png,0,153,153,153,159.17165437398944,,,,,,,,,,159.12361896201037,159.1806559439865,159.1806559439865,159.9332329580211,159.9332329580211,160.12244442297379,None,0,,,,,sub-003,ses-control-bqse-z-2,run-1,grey,2024-04-25_13h36.59.734,VDT,2023.2.3,120.34255080046589,2024-04-25 13h37.19.614144 +0200,
./images_beh/Sphere_CW-1.5_BG-grey_stim-white.png,0,154,154,154,160.1708012369927,,,,,,,,,,160.12317895900924,160.18033512099646,160.18033512099646,160.93292495398782,160.93292495398782,161.15093176200753,None,0,,,,,sub-003,ses-control-bqse-z-2,run-1,grey,2024-04-25_13h36.59.734,VDT,2023.2.3,120.34255080046589,2024-04-25 13h37.19.614144 +0200,
./images_beh/Sphere_CW-1.5_BG-grey_stim-white.png,0,155,155,155,161.19926551001845,,,,,,,,,,161.15166098601185,161.19926551001845,161.19926551001845,161.92171719501493,161.946199013968,162.16641274897847,None,0,,,,,sub-003,ses-control-bqse-z-2,run-1,grey,2024-04-25_13h36.59.734,VDT,2023.2.3,120.34255080046589,2024-04-25 13h37.19.614144 +0200,
./images_beh/Sphere_CW-1.5_BG-grey_stim-yellow.png,0,156,156,156,162.21325373399304,,,,,,,,,,162.1672083819867,162.21325373399304,162.21325373399304,162.93218718998833,162.95327793899924,163.12950933800312,['space'],0,0.42581173800863326,None,,,sub-003,ses-control-bqse-z-2,run-1,grey,2024-04-25_13h36.59.734,VDT,2023.2.3,120.34255080046589,2024-04-25 13h37.19.614144 +0200,
./images_beh/Sphere_CCW-1.5_BG-grey_stim-white.png,0,157,157,157,163.16839045198867,,,,,,,,,,163.13045802898705,163.16839045198867,163.16839045198867,163.91904277499998,163.9118047300144,164.1463857779745,None,0,,,,,sub-003,ses-control-bqse-z-2,run-1,grey,2024-04-25_13h36.59.734,VDT,2023.2.3,120.34255080046589,2024-04-25 13h37.19.614144 +0200,
./images_beh/Sphere_CCW-1.5_BG-grey_stim-white.png,0,158,158,158,164.1957845229772,,,,,,,,,,164.1471702120034,164.1957845229772,164.1957845229772,164.92838191101328,164.93582334701205,165.13636895897798,None,0,,,,,sub-003,ses-control-bqse-z-2,run-1,grey,2024-04-25_13h36.59.734,VDT,2023.2.3,120.34255080046589,2024-04-25 13h37.19.614144 +0200,
./images_beh/Sphere_Ref_BG-grey_stim-yellow.png,0,159,159,159,165.18468970101094,,,,,,,,,,165.13709481601836,165.18468970101094,165.18468970101094,165.91930845397292,165.92724408197682,166.12865806999616,['space'],0,0.4148462329758331,None,,,sub-003,ses-control-bqse-z-2,run-1,grey,2024-04-25_13h36.59.734,VDT,2023.2.3,120.34255080046589,2024-04-25 13h37.19.614144 +0200,
./images_beh/Sphere_CW-1.5_BG-grey_stim-white.png,0,160,160,160,166.17607599199982,,,,,,,,,,166.12994655198418,166.17607599199982,166.17607599199982,166.91860624199035,166.91860624199035,167.1275549440179,None,0,,,,,sub-003,ses-control-bqse-z-2,run-1,grey,2024-04-25_13h36.59.734,VDT,2023.2.3,120.34255080046589,2024-04-25 13h37.19.614144 +0200,
./images_beh/Sphere_CW-1.5_BG-grey_stim-white.png,0,161,161,161,167.17123739200179,,,,,,,,,,167.128296823008,167.17123739200179,167.17123739200179,167.92897388600977,167.92897388600977,168.10123928496614,None,0,,,,,sub-003,ses-control-bqse-z-2,run-1,grey,2024-04-25_13h36.59.734,VDT,2023.2.3,120.34255080046589,2024-04-25 13h37.19.614144 +0200,
./images_beh/Sphere_Ref_BG-grey_stim-white.png,0,162,162,162,168.1455946629867,,,,,,,,,,168.10182848997647,168.16576545801945,168.16576545801945,168.91663472697837,168.90950684197014,169.07726126600755,None,0,,,,,sub-003,ses-control-bqse-z-2,run-1,grey,2024-04-25_13h36.59.734,VDT,2023.2.3,120.34255080046589,2024-04-25 13h37.19.614144 +0200,
./images_beh/Sphere_CW-1.5_BG-grey_stim-white.png,0,163,163,163,169.12374274700414,,,,,,,,,,169.0780127500184,169.1656745619839,169.1656745619839,169.92806774599012,169.91108203597832,170.09983862598892,None,0,,,,,sub-003,ses-control-bqse-z-2,run-1,grey,2024-04-25_13h36.59.734,VDT,2023.2.3,120.34255080046589,2024-04-25 13h37.19.614144 +0200,
./images_beh/Sphere_CW-1.5_BG-grey_stim-white.png,0,164,164,164,170.144728817977,,,,,,,,,,170.10045003599953,170.1649947859696,170.1649947859696,170.92564746300923,170.9109659040114,171.13126211398048,None,0,,,,,sub-003,ses-control-bqse-z-2,run-1,grey,2024-04-25_13h36.59.734,VDT,2023.2.3,120.34255080046589,2024-04-25 13h37.19.614144 +0200,
./images_beh/Sphere_CCW-1.5_BG-grey_stim-yellow.png,0,165,165,165,171.17545020201942,,,,,,,,,,171.13176780496724,171.17545020201942,171.17545020201942,171.9149992929888,171.9242288530222,172.0752551520127,['space'],0,0.3918005230370909,None,,,sub-003,ses-control-bqse-z-2,run-1,grey,2024-04-25_13h36.59.734,VDT,2023.2.3,120.34255080046589,2024-04-25 13h37.19.614144 +0200,
./images_beh/Sphere_CW-1.5_BG-grey_stim-white.png,0,166,166,166,172.1213558379677,,,,,,,,,,172.0767755730194,172.1639209840214,172.1639209840214,172.9261994449771,172.9261994449771,173.11522419401444,None,0,,,,,sub-003,ses-control-bqse-z-2,run-1,grey,2024-04-25_13h36.59.734,VDT,2023.2.3,120.34255080046589,2024-04-25 13h37.19.614144 +0200,
./images_beh/Sphere_CW-1.5_BG-grey_stim-white.png,0,167,167,167,173.15916081902105,,,,,,,,,,173.1158334360225,173.17362040601438,173.17362040601438,173.91449591098353,173.91449591098353,174.1267993299989,None,0,,,,,sub-003,ses-control-bqse-z-2,run-1,grey,2024-04-25_13h36.59.734,VDT,2023.2.3,120.34255080046589,2024-04-25 13h37.19.614144 +0200,
./images_beh/Sphere_CCW-1.5_BG-grey_stim-white.png,0,168,168,168,174.17472560302122,,,,,,,,,,174.12752390897367,174.17472560302122,174.17472560302122,174.9141041400144,174.925717103004,175.11443062499166,None,0,,,,,sub-003,ses-control-bqse-z-2,run-1,grey,2024-04-25_13h36.59.734,VDT,2023.2.3,120.34255080046589,2024-04-25 13h37.19.614144 +0200,
./images_beh/Sphere_CW-1.5_BG-grey_stim-white.png,0,169,169,169,175.1626758740167,,,,,,,,,,175.11517516098684,175.1730291469721,175.1730291469721,175.92261637496995,175.9118942900095,176.09022823197301,None,0,,,,,sub-003,ses-control-bqse-z-2,run-1,grey,2024-04-25_13h36.59.734,VDT,2023.2.3,120.34255080046589,2024-04-25 13h37.19.614144 +0200,
./images_beh/Sphere_Ref_BG-grey_stim-yellow.png,0,170,170,170,176.13443327602,,,,,,,,,,176.09116660500877,176.1723451470025,176.1723451470025,176.92207239498384,176.91121045401087,177.138414016983,['space'],0,0.38586305698845536,None,,,sub-003,ses-control-bqse-z-2,run-1,grey,2024-04-25_13h36.59.734,VDT,2023.2.3,120.34255080046589,2024-04-25 13h37.19.614144 +0200,
./images_beh/Sphere_CCW-1.5_BG-grey_stim-white.png,0,171,171,171,177.17146149999462,,,,,,,,,,177.13909124198835,177.17686167696957,177.17686167696957,177.92092737200437,177.92092737200437,178.1117495269864,None,0,,,,,sub-003,ses-control-bqse-z-2,run-1,grey,2024-04-25_13h36.59.734,VDT,2023.2.3,120.34255080046589,2024-04-25 13h37.19.614144 +0200,
./images_beh/Sphere_CCW-1.5_BG-grey_stim-white.png,0,172,172,172,178.1553086710046,,,,,,,,,,178.11280153301777,178.177687657997,178.177687657997,178.92358606896596,178.92358606896596,179.1133189930115,None,0,,,,,sub-003,ses-control-bqse-z-2,run-1,grey,2024-04-25_13h36.59.734,VDT,2023.2.3,120.34255080046589,2024-04-25 13h37.19.614144 +0200,
./images_beh/Sphere_Ref_BG-grey_stim-yellow.png,0,173,173,173,179.1619444990065,,,,,,,,,,179.11405016802019,179.17094010597793,179.17094010597793,179.9207585270051,179.90987136901822,180.14438287401572,['space'],0,0.44465393997961655,None,,,sub-003,ses-control-bqse-z-2,run-1,grey,2024-04-25_13h36.59.734,VDT,2023.2.3,120.34255080046589,2024-04-25 13h37.19.614144 +0200,
./images_beh/Sphere_CCW-1.5_BG-grey_stim-white.png,0,174,174,174,180.1899870079942,,,,,,,,,,180.14516973000718,180.1899870079942,180.1899870079942,180.9200007719919,180.93665622000117,181.12823625601595,None,0,,,,,sub-003,ses-control-bqse-z-2,run-1,grey,2024-04-25_13h36.59.734,VDT,2023.2.3,120.34255080046589,2024-04-25 13h37.19.614144 +0200,
./images_beh/Sphere_CW-1.5_BG-grey_stim-white.png,0,175,175,175,181.17816080601187,,,,,,,,,,181.1292496160022,181.17816080601187,181.17816080601187,181.9219261429971,181.9394463460194,182.13756782299606,None,0,,,,,sub-003,ses-control-bqse-z-2,run-1,grey,2024-04-25_13h36.59.734,VDT,2023.2.3,120.34255080046589,2024-04-25 13h37.19.614144 +0200,
./images_beh/Sphere_CCW-1.5_BG-grey_stim-white.png,0,176,176,176,182.18520095798885,,,,,,,,,,182.13835257396568,182.18520095798885,182.18520095798885,182.9190336560132,182.92598912701942,183.10987580998335,None,0,,,,,sub-003,ses-control-bqse-z-2,run-1,grey,2024-04-25_13h36.59.734,VDT,2023.2.3,120.34255080046589,2024-04-25 13h37.19.614144 +0200,
./images_beh/Sphere_CW-1.5_BG-grey_stim-yellow.png,0,177,177,177,183.15607232000912,,,,,,,,,,183.11061631096527,183.17490601498866,183.17490601498866,183.9181378519861,183.9181378519861,184.10932187800063,['space'],0,0.37865716201486066,None,,,sub-003,ses-control-bqse-z-2,run-1,grey,2024-04-25_13h36.59.734,VDT,2023.2.3,120.34255080046589,2024-04-25 13h37.19.614144 +0200,
./images_beh/Sphere_CCW-1.5_BG-grey_stim-white.png,0,178,178,178,184.15628257201752,,,,,,,,,,184.1102767799748,184.168159621011,184.168159621011,184.91802876401925,184.90743882698007,185.1251010770211,None,0,,,,,sub-003,ses-control-bqse-z-2,run-1,grey,2024-04-25_13h36.59.734,VDT,2023.2.3,120.34255080046589,2024-04-25 13h37.19.614144 +0200,
./images_beh/Sphere_Ref_BG-grey_stim-white.png,0,179,179,179,185.1692147749709,,,,,,,,,,185.12570698797936,185.1692147749709,185.1692147749709,185.91743177198805,185.91743177198805,186.11840628401842,None,0,,,,,sub-003,ses-control-bqse-z-2,run-1,grey,2024-04-25_13h36.59.734,VDT,2023.2.3,120.34255080046589,2024-04-25 13h37.19.614144 +0200,
./images_beh/Sphere_CCW-1.5_BG-grey_stim-white.png,0,180,180,180,186.1642628919799,,,,,,,,,,186.11922883900115,186.18323041097028,186.18323041097028,186.9169678479666,186.92435768101132,187.08466784097254,None,0,,,,,sub-003,ses-control-bqse-z-2,run-1,grey,2024-04-25_13h36.59.734,VDT,2023.2.3,120.34255080046589,2024-04-25 13h37.19.614144 +0200,
./images_beh/Sphere_CW-1.5_BG-grey_stim-white.png,0,181,181,181,187.1320835709921,,,,,,,,,,187.08542742801365,187.17370784998639,187.17370784998639,187.9165225069737,187.9165225069737,188.12325757398503,None,0,,,,,sub-003,ses-control-bqse-z-2,run-1,grey,2024-04-25_13h36.59.734,VDT,2023.2.3,120.34255080046589,2024-04-25 13h37.19.614144 +0200,
./images_beh/Sphere_Ref_BG-grey_stim-white.png,0,182,182,182,188.1674997480004,,,,,,,,,,188.12385557597736,188.17268302699085,188.17268302699085,188.92259184399154,188.9160276639741,189.10001174901845,None,0,,,,,sub-003,ses-control-bqse-z-2,run-1,grey,2024-04-25_13h36.59.734,VDT,2023.2.3,120.34255080046589,2024-04-25 13h37.19.614144 +0200,
./images_beh/Sphere_Ref_BG-grey_stim-white.png,0,183,183,183,189.1474808480125,,,,,,,,,,189.10127406101674,189.17078235698864,189.17078235698864,189.92242840997642,189.9152893400169,190.10545352398185,None,0,,,,,sub-003,ses-control-bqse-z-2,run-1,grey,2024-04-25_13h36.59.734,VDT,2023.2.3,120.34255080046589,2024-04-25 13h37.19.614144 +0200,
./images_beh/Sphere_Ref_BG-grey_stim-yellow.png,0,184,184,184,190.14846283500083,,,,,,,,,,190.10605707397917,190.1709910230129,190.1709910230129,190.92160290200263,190.9147240659804,191.10605055297492,['space'],0,0.4461108859977685,None,,,sub-003,ses-control-bqse-z-2,run-1,grey,2024-04-25_13h36.59.734,VDT,2023.2.3,120.34255080046589,2024-04-25 13h37.19.614144 +0200,
./images_beh/Sphere_CW-1.5_BG-grey_stim-white.png,0,185,185,185,191.15047389396932,,,,,,,,,,191.10697142296704,191.1702446009731,191.1702446009731,191.92060513800243,191.91425253200578,192.13215165102156,None,0,,,,,sub-003,ses-control-bqse-z-2,run-1,grey,2024-04-25_13h36.59.734,VDT,2023.2.3,120.34255080046589,2024-04-25 13h37.19.614144 +0200,
./images_beh/Sphere_CW-1.5_BG-grey_stim-white.png,0,186,186,186,192.18209126999136,,,,,,,,,,192.1329573719995,192.18209126999136,192.18209126999136,192.93335924699204,192.93335924699204,193.13087399001233,None,0,,,,,sub-003,ses-control-bqse-z-2,run-1,grey,2024-04-25_13h36.59.734,VDT,2023.2.3,120.34255080046589,2024-04-25 13h37.19.614144 +0200,
./images_beh/Sphere_CW-1.5_BG-grey_stim-white.png,0,187,187,187,193.16464701801306,,,,,,,,,,193.13144313299563,193.18042099598097,193.18042099598097,193.91856026399182,193.91856026399182,194.13576215697685,None,0,,,,,sub-003,ses-control-bqse-z-2,run-1,grey,2024-04-25_13h36.59.734,VDT,2023.2.3,120.34255080046589,2024-04-25 13h37.19.614144 +0200,
./images_beh/Sphere_CW-1.5_BG-grey_stim-yellow.png,0,188,188,188,194.173211603018,,,,,,,,,,194.13614247599617,194.173211603018,194.173211603018,194.9175508209737,194.9175508209737,195.18263191200094,['space'],0,0.4009192640078254,None,195.16786359599791,195.16786359599791,sub-003,ses-control-bqse-z-2,run-1,grey,2024-04-25_13h36.59.734,VDT,2023.2.3,120.34255080046589,2024-04-25 13h37.19.614144 +0200,
./images_beh/Sphere_CCW-1.5_BG-grey_stim-white.png,0,189,189,189,195.2292248249869,,,,,,,,,,195.18358145898674,195.2292248249869,195.2292248249869,195.93227111099986,195.97055048699258,196.14700155699393,None,0,,,,,sub-003,ses-control-bqse-z-2,run-1,grey,2024-04-25_13h36.59.734,VDT,2023.2.3,120.34255080046589,2024-04-25 13h37.19.614144 +0200,
./images_beh/Sphere_CW-1.5_BG-grey_stim-white.png,0,190,190,190,196.19630614697235,,,,,,,,,,196.14809447800508,196.19630614697235,196.19630614697235,196.93130655697314,196.94530223798938,197.10312907997286,None,0,,,,,sub-003,ses-control-bqse-z-2,run-1,grey,2024-04-25_13h36.59.734,VDT,2023.2.3,120.34255080046589,2024-04-25 13h37.19.614144 +0200,
./images_beh/Sphere_Ref_BG-grey_stim-yellow.png,0,191,191,191,197.15161279699532,,,,,,,,,,197.10384555900237,197.16725288401358,197.16725288401358,197.91694051597733,197.91099304996897,198.11249472701456,['space'],0,0.42346718697808683,None,,,sub-003,ses-control-bqse-z-2,run-1,grey,2024-04-25_13h36.59.734,VDT,2023.2.3,120.34255080046589,2024-04-25 13h37.19.614144 +0200,
./images_beh/Sphere_CCW-1.5_BG-grey_stim-white.png,0,192,192,192,198.159702991019,,,,,,,,,,198.1138182199793,198.16518934699707,198.16518934699707,198.9181536490214,198.91096559696598,199.08504152297974,None,0,,,,,sub-003,ses-control-bqse-z-2,run-1,grey,2024-04-25_13h36.59.734,VDT,2023.2.3,120.34255080046589,2024-04-25 13h37.19.614144 +0200,
./images_beh/Sphere_CCW-1.5_BG-grey_stim-white.png,0,193,193,193,199.12982500897488,,,,,,,,,,199.0856230519712,199.17795567197027,199.17795567197027,199.92713992501376,199.92713992501376,200.15046160598285,None,0,,,,,sub-003,ses-control-bqse-z-2,run-1,grey,2024-04-25_13h36.59.734,VDT,2023.2.3,120.34255080046589,2024-04-25 13h37.19.614144 +0200,
./images_beh/Sphere_CCW-1.5_BG-grey_stim-yellow.png,0,194,194,194,200.18781664699782,,,,,,,,,,200.15085327497218,200.18781664699782,200.18781664699782,200.91680893901503,200.93369480001274,201.13394014898222,['space'],0,0.5159800000255927,None,,,sub-003,ses-control-bqse-z-2,run-1,grey,2024-04-25_13h36.59.734,VDT,2023.2.3,120.34255080046589,2024-04-25 13h37.19.614144 +0200,
./images_beh/Sphere_CW-1.5_BG-grey_stim-white.png,0,195,195,195,201.1781199760153,,,,,,,,,,201.1347038539825,201.1781199760153,201.1781199760153,201.91615714499494,201.92593405098887,202.11780184699455,None,0,,,,,sub-003,ses-control-bqse-z-2,run-1,grey,2024-04-25_13h36.59.734,VDT,2023.2.3,120.34255080046589,2024-04-25 13h37.19.614144 +0200,
./images_beh/Sphere_CCW-1.5_BG-grey_stim-white.png,0,196,196,196,202.16613458300708,,,,,,,,,,202.11852972599445,202.1760368149844,202.1760368149844,202.91634643898578,202.91634643898578,203.1268040969735,None,0,,,,,sub-003,ses-control-bqse-z-2,run-1,grey,2024-04-25_13h36.59.734,VDT,2023.2.3,120.34255080046589,2024-04-25 13h37.19.614144 +0200,
./images_beh/Sphere_CCW-1.5_BG-grey_stim-white.png,0,197,197,197,203.17623785499018,,,,,,,,,,203.12767930398695,203.17623785499018,203.17623785499018,203.91604834899772,203.9253317010007,204.09542321099434,None,0,,,,,sub-003,ses-control-bqse-z-2,run-1,grey,2024-04-25_13h36.59.734,VDT,2023.2.3,120.34255080046589,2024-04-25 13h37.19.614144 +0200,
./images_beh/Sphere_CW-1.5_BG-grey_stim-white.png,0,198,198,198,204.14145318599185,,,,,,,,,,204.0961546630133,204.16340884997044,204.16340884997044,204.91539273801027,204.90805466799065,205.10845061397413,None,0,,,,,sub-003,ses-control-bqse-z-2,run-1,grey,2024-04-25_13h36.59.734,VDT,2023.2.3,120.34255080046589,2024-04-25 13h37.19.614144 +0200,
./images_beh/Sphere_Ref_BG-grey_stim-white.png,0,199,199,199,205.15654488897417,,,,,,,,,,205.1114909760072,205.16294037597254,205.16294037597254,205.91537245397922,205.90781857597176,206.1968557969667,None,0,,,206.15750868601026,206.15750868601026,sub-003,ses-control-bqse-z-2,run-1,grey,2024-04-25_13h36.59.734,VDT,2023.2.3,120.34255080046589,2024-04-25 13h37.19.614144 +0200,
./images_beh/Sphere_Ref_BG-grey_stim-yellow.png,0,200,200,200,206.24452861997997,,,,,,,,,,206.19757131597726,206.24452861997997,206.24452861997997,206.9257085749996,206.98970333801117,207.1298636010033,['space'],0,0.4108547900104895,None,,,sub-003,ses-control-bqse-z-2,run-1,grey,2024-04-25_13h36.59.734,VDT,2023.2.3,120.34255080046589,2024-04-25 13h37.19.614144 +0200,
./images_beh/Sphere_Ref_BG-grey_stim-white.png,0,201,201,201,207.1778971129679,,,,,,,,,,207.13080530497245,207.1778971129679,207.1778971129679,207.9223964010016,207.9223964010016,208.09074544202304,None,0,,,,,sub-003,ses-control-bqse-z-2,run-1,grey,2024-04-25_13h36.59.734,VDT,2023.2.3,120.34255080046589,2024-04-25 13h37.19.614144 +0200,
./images_beh/Sphere_CCW-1.5_BG-grey_stim-white.png,0,202,202,202,208.13861516397446,,,,,,,,,,208.0919220619835,208.17284431296866,208.17284431296866,208.92207932501333,208.9108995209681,209.0963505950058,None,0,,,,,sub-003,ses-control-bqse-z-2,run-1,grey,2024-04-25_13h36.59.734,VDT,2023.2.3,120.34255080046589,2024-04-25 13h37.19.614144 +0200,
./images_beh/Sphere_CW-1.5_BG-grey_stim-white.png,0,203,203,203,209.14278170198668,,,,,,,,,,209.09707492101006,209.17431345098885,209.17431345098885,209.92219852400012,209.92219852400012,210.14618007600075,None,0,,,,,sub-003,ses-control-bqse-z-2,run-1,grey,2024-04-25_13h36.59.734,VDT,2023.2.3,120.34255080046589,2024-04-25 13h37.19.614144 +0200,
./images_beh/Sphere_CCW-1.5_BG-grey_stim-white.png,0,204,204,204,210.19525710801827,,,,,,,,,,210.14690207201056,210.19525710801827,210.19525710801827,210.92139716399834,210.9377793809981,211.15565148397582,None,0,,,,,sub-003,ses-control-bqse-z-2,run-1,grey,2024-04-25_13h36.59.734,VDT,2023.2.3,120.34255080046589,2024-04-25 13h37.19.614144 +0200,
./images_beh/Sphere_Ref_BG-grey_stim-yellow.png,0,205,205,205,211.20046510500833,,,,,,,,,,211.15629274398088,211.20046510500833,211.20046510500833,211.92057956301142,211.94352382601937,212.14367975201458,['space'],0,0.415416197036393,None,,,sub-003,ses-control-bqse-z-2,run-1,grey,2024-04-25_13h36.59.734,VDT,2023.2.3,120.34255080046589,2024-04-25 13h37.19.614144 +0200,
./images_beh/Sphere_CW-1.5_BG-grey_stim-white.png,0,206,206,206,212.185924505,,,,,,,,,,212.14450534398202,212.185924505,212.185924505,212.92039372498402,212.92726926098112,213.09417255601147,None,0,,,,,sub-003,ses-control-bqse-z-2,run-1,grey,2024-04-25_13h36.59.734,VDT,2023.2.3,120.34255080046589,2024-04-25 13h37.19.614144 +0200,
./images_beh/Sphere_CCW-1.5_BG-grey_stim-white.png,0,207,207,207,213.13981975300703,,,,,,,,,,213.09492539498024,213.17204246798065,213.17204246798065,213.91945931699593,213.91945931699593,214.10948820598423,None,0,,,,,sub-003,ses-control-bqse-z-2,run-1,grey,2024-04-25_13h36.59.734,VDT,2023.2.3,120.34255080046589,2024-04-25 13h37.19.614144 +0200,
./images_beh/Sphere_CCW-1.5_BG-grey_stim-white.png,0,208,208,208,214.15583723800955,,,,,,,,,,214.11011001601582,214.1744465510128,214.1744465510128,214.91914022900164,214.91914022900164,215.1266151330201,None,0,,,,,sub-003,ses-control-bqse-z-2,run-1,grey,2024-04-25_13h36.59.734,VDT,2023.2.3,120.34255080046589,2024-04-25 13h37.19.614144 +0200,
./images_beh/Sphere_CW-1.5_BG-grey_stim-white.png,0,209,209,209,215.17403005901724,,,,,,,,,,215.1273455269984,215.17403005901724,215.17403005901724,215.91849402099615,215.91849402099615,216.13727613101946,None,0,,,,,sub-003,ses-control-bqse-z-2,run-1,grey,2024-04-25_13h36.59.734,VDT,2023.2.3,120.34255080046589,2024-04-25 13h37.19.614144 +0200,
./images_beh/Sphere_CCW-1.5_BG-grey_stim-yellow.png,0,210,210,210,216.18685212999117,,,,,,,,,,216.13808987097582,216.18685212999117,216.18685212999117,216.91817073500715,216.93490777001716,217.1081068170024,['space'],0,0.3806118710199371,None,,,sub-003,ses-control-bqse-z-2,run-1,grey,2024-04-25_13h36.59.734,VDT,2023.2.3,120.34255080046589,2024-04-25 13h37.19.614144 +0200,
./images_beh/Sphere_CCW-1.5_BG-grey_stim-white.png,0,211,211,211,217.15324247500394,,,,,,,,,,217.10900224099169,217.1745982900029,217.1745982900029,217.91754764900543,217.92393287300365,218.0912216809811,None,0,,,,,sub-003,ses-control-bqse-z-2,run-1,grey,2024-04-25_13h36.59.734,VDT,2023.2.3,120.34255080046589,2024-04-25 13h37.19.614144 +0200,
./images_beh/Sphere_CCW-1.5_BG-grey_stim-white.png,0,212,212,212,218.13739080599044,,,,,,,,,,218.09190215996932,218.1730786099797,218.1730786099797,218.91729953401955,218.91729953401955,219.10774504300207,None,0,,,,,sub-003,ses-control-bqse-z-2,run-1,grey,2024-04-25_13h36.59.734,VDT,2023.2.3,120.34255080046589,2024-04-25 13h37.19.614144 +0200,
./images_beh/Sphere_CW-1.5_BG-grey_stim-yellow.png,0,213,213,213,219.15603991498938,,,,,,,,,,219.1084971060045,219.17260232998524,219.17260232998524,219.9231349080219,219.91664520499762,220.09053908701753,['space'],0,0.4427015300025232,None,,,sub-003,ses-control-bqse-z-2,run-1,grey,2024-04-25_13h36.59.734,VDT,2023.2.3,120.34255080046589,2024-04-25 13h37.19.614144 +0200,
./images_beh/Sphere_CW-1.5_BG-grey_stim-white.png,0,214,214,214,220.13489142997423,,,,,,,,,,220.0913218719652,220.172561579966,220.172561579966,220.9238203020068,220.91676543001086,221.1236476220074,None,0,,,,,sub-003,ses-control-bqse-z-2,run-1,grey,2024-04-25_13h36.59.734,VDT,2023.2.3,120.34255080046589,2024-04-25 13h37.19.614144 +0200,
./images_beh/Sphere_CW-1.5_BG-grey_stim-white.png,0,215,215,215,221.17163069196977,,,,,,,,,,221.12451978196623,221.18216878100066,221.18216878100066,221.92237819201546,221.92237819201546,222.09955740801524,None,0,,,,,sub-003,ses-control-bqse-z-2,run-1,grey,2024-04-25_13h36.59.734,VDT,2023.2.3,120.34255080046589,2024-04-25 13h37.19.614144 +0200,
./images_beh/Sphere_CCW-1.5_BG-grey_stim-white.png,0,216,216,216,222.14238066301914,,,,,,,,,,222.10045139299473,222.1708200770081,222.1708200770081,222.9210014080163,222.91500199399889,223.13249371596612,None,0,,,,,sub-003,ses-control-bqse-z-2,run-1,grey,2024-04-25_13h36.59.734,VDT,2023.2.3,120.34255080046589,2024-04-25 13h37.19.614144 +0200,
./images_beh/Sphere_CCW-1.5_BG-grey_stim-white.png,0,217,217,217,223.1798185869702,,,,,,,,,,223.13358245400013,223.1798185869702,223.1798185869702,223.9214898070204,223.9214898070204,224.08754927502014,None,0,,,,,sub-003,ses-control-bqse-z-2,run-1,grey,2024-04-25_13h36.59.734,VDT,2023.2.3,120.34255080046589,2024-04-25 13h37.19.614144 +0200,
./images_beh/Sphere_Ref_BG-grey_stim-white.png,0,218,218,218,224.12878442602232,,,,,,,,,,224.088188987982,224.17100386001403,224.17100386001403,224.9213466909714,224.91412500897422,225.11483962397324,None,0,,,,,sub-003,ses-control-bqse-z-2,run-1,grey,2024-04-25_13h36.59.734,VDT,2023.2.3,120.34255080046589,2024-04-25 13h37.19.614144 +0200,
./images_beh/Sphere_Ref_BG-grey_stim-yellow.png,0,219,219,219,225.1613286039792,,,,,,,,,,225.11596687999554,225.16674064297695,225.16674064297695,225.9181721690111,225.91294593497878,226.1142078799894,['space'],0,0.4409360619611107,None,,,sub-003,ses-control-bqse-z-2,run-1,grey,2024-04-25_13h36.59.734,VDT,2023.2.3,120.34255080046589,2024-04-25 13h37.19.614144 +0200,
./images_beh/Sphere_CW-1.5_BG-grey_stim-white.png,0,220,220,220,226.16078974399716,,,,,,,,,,226.115499328007,226.16617819399107,226.16617819399107,226.9201937339967,226.91334137896774,227.0996706429869,None,0,,,,,sub-003,ses-control-bqse-z-2,run-1,grey,2024-04-25_13h36.59.734,VDT,2023.2.3,120.34255080046589,2024-04-25 13h37.19.614144 +0200,
./images_beh/Sphere_CCW-1.5_BG-grey_stim-white.png,0,221,221,221,227.14722451398848,,,,,,,,,,227.10040791798383,227.1693268350209,227.1693268350209,227.9189470129786,227.9128530389862,228.09908276598435,None,0,,,,,sub-003,ses-control-bqse-z-2,run-1,grey,2024-04-25_13h36.59.734,VDT,2023.2.3,120.34255080046589,2024-04-25 13h37.19.614144 +0200,
./images_beh/Sphere_CCW-1.5_BG-grey_stim-yellow.png,0,222,222,222,228.14597514097113,,,,,,,,,,228.099810744985,228.1682361639687,228.1682361639687,228.9189726350014,228.91218235198176,229.16262881201692,['space'],0,0.6710298330290243,None,229.16179422696587,229.16179422696587,sub-003,ses-control-bqse-z-2,run-1,grey,2024-04-25_13h36.59.734,VDT,2023.2.3,120.34255080046589,2024-04-25 13h37.19.614144 +0200,
./images_beh/Sphere_CW-1.5_BG-grey_stim-white.png,0,223,223,223,229.20717278297525,,,,,,,,,,229.16373951599235,229.20717278297525,229.20717278297525,229.91890386200976,229.95191627397435,230.16230733599514,None,0,,,,230.1613560349797,sub-003,ses-control-bqse-z-2,run-1,grey,2024-04-25_13h36.59.734,VDT,2023.2.3,120.34255080046589,2024-04-25 13h37.19.614144 +0200,
./images_beh/Sphere_CCW-1.5_BG-grey_stim-white.png,0,224,224,224,230.20810478797648,,,,,,,,,,230.16344050999032,230.20810478797648,230.20810478797648,230.92778147599893,230.9515685950173,231.08600789000047,None,0,,,,,sub-003,ses-control-bqse-z-2,run-1,grey,2024-04-25_13h36.59.734,VDT,2023.2.3,120.34255080046589,2024-04-25 13h37.19.614144 +0200,
./images_beh/Sphere_CW-1.5_BG-grey_stim-white.png,0,225,225,225,231.13450216897763,,,,,,,,,,231.08672829001443,231.16662594798254,231.16662594798254,231.9183097339701,231.91079735197127,232.09756177896634,None,0,,,,,sub-003,ses-control-bqse-z-2,run-1,grey,2024-04-25_13h36.59.734,VDT,2023.2.3,120.34255080046589,2024-04-25 13h37.19.614144 +0200,
./images_beh/Sphere_CW-1.5_BG-grey_stim-white.png,0,226,226,226,232.14516889600782,,,,,,,,,,232.09831143601332,232.16667378199054,232.16667378199054,232.92695435200585,232.91255393699976,233.16137226502178,None,0,,,233.16007224097848,,sub-003,ses-control-bqse-z-2,run-1,grey,2024-04-25_13h36.59.734,VDT,2023.2.3,120.34255080046589,2024-04-25 13h37.19.614144 +0200,
./images_beh/Sphere_Ref_BG-grey_stim-yellow.png,0,227,227,227,233.20862629800104,,,,,,,,,,233.1622899179929,233.20862629800104,233.20862629800104,233.9165541260154,233.94869193300838,234.10061842697905,['space'],0,0.38301157200476155,None,,,sub-003,ses-control-bqse-z-2,run-1,grey,2024-04-25_13h36.59.734,VDT,2023.2.3,120.34255080046589,2024-04-25 13h37.19.614144 +0200,
./images_beh/Sphere_CW-1.5_BG-grey_stim-white.png,0,228,228,228,234.14884691196494,,,,,,,,,,234.10156953998376,234.16445944696898,234.16445944696898,234.91685844102176,234.90933177800616,235.1494492769707,None,0,,,,,sub-003,ses-control-bqse-z-2,run-1,grey,2024-04-25_13h36.59.734,VDT,2023.2.3,120.34255080046589,2024-04-25 13h37.19.614144 +0200,
./images_beh/Sphere_Ref_BG-grey_stim-white.png,0,229,229,229,235.19751989498036,,,,,,,,,,235.15024694800377,235.19751989498036,235.19751989498036,235.91714086098364,235.94180638500256,236.09536242100876,None,0,,,,,sub-003,ses-control-bqse-z-2,run-1,grey,2024-04-25_13h36.59.734,VDT,2023.2.3,120.34255080046589,2024-04-25 13h37.19.614144 +0200,
./images_beh/Sphere_CW-1.5_BG-grey_stim-yellow.png,0,230,230,230,236.14375566400122,,,,,,,,,,236.09609501599334,236.16391878196737,236.16391878196737,236.91414800600614,236.90785995998885,237.10877672798233,['space'],0,0.4463213760172948,None,,,sub-003,ses-control-bqse-z-2,run-1,grey,2024-04-25_13h36.59.734,VDT,2023.2.3,120.34255080046589,2024-04-25 13h37.19.614144 +0200,
./images_beh/Sphere_CCW-1.5_BG-grey_stim-white.png,0,231,231,231,237.1553962159669,,,,,,,,,,237.11001743201632,237.1741495609749,237.1741495609749,237.91503172798548,237.91503172798548,238.14423190697562,None,0,,,,,sub-003,ses-control-bqse-z-2,run-1,grey,2024-04-25_13h36.59.734,VDT,2023.2.3,120.34255080046589,2024-04-25 13h37.19.614144 +0200,
./images_beh/Sphere_CW-1.5_BG-grey_stim-white.png,0,232,232,232,238.19278442300856,,,,,,,,,,238.14526115800254,238.19278442300856,238.19278442300856,238.91573574696667,238.94050088099902,239.1437547749956,None,0,,,,,sub-003,ses-control-bqse-z-2,run-1,grey,2024-04-25_13h36.59.734,VDT,2023.2.3,120.34255080046589,2024-04-25 13h37.19.614144 +0200,
./images_beh/Sphere_CCW-1.5_BG-grey_stim-white.png,0,233,233,233,239.19265071098926,,,,,,,,,,239.14460667199455,239.19265071098926,239.19265071098926,239.91476951999357,239.93977441900643,240.14429806696717,None,0,,,,,sub-003,ses-control-bqse-z-2,run-1,grey,2024-04-25_13h36.59.734,VDT,2023.2.3,120.34255080046589,2024-04-25 13h37.19.614144 +0200,
./images_beh/Sphere_CW-1.5_BG-grey_stim-white.png,0,234,234,234,240.19391390000237,,,,,,,,,,240.14520200999686,240.19391390000237,240.19391390000237,240.9259315999807,240.95886436698493,241.123960833007,None,0,,,,,sub-003,ses-control-bqse-z-2,run-1,grey,2024-04-25_13h36.59.734,VDT,2023.2.3,120.34255080046589,2024-04-25 13h37.19.614144 +0200,
./images_beh/Sphere_CCW-1.5_BG-grey_stim-white.png,0,235,235,235,241.17214193101972,,,,,,,,,,241.1247941289912,241.17781358899083,241.17781358899083,241.9221842410043,241.9221842410043,242.1086405639653,None,0,,,,,sub-003,ses-control-bqse-z-2,run-1,grey,2024-04-25_13h36.59.734,VDT,2023.2.3,120.34255080046589,2024-04-25 13h37.19.614144 +0200,
./images_beh/Sphere_Ref_BG-grey_stim-yellow.png,0,236,236,236,242.15465154696722,,,,,,,,,,242.10936727601802,242.17162358900532,242.17162358900532,242.9245590759674,242.91076487797545,243.13020403397968,['space'],0,0.39557319099549204,None,,,sub-003,ses-control-bqse-z-2,run-1,grey,2024-04-25_13h36.59.734,VDT,2023.2.3,120.34255080046589,2024-04-25 13h37.19.614144 +0200,
./images_beh/Sphere_CCW-1.5_BG-grey_stim-white.png,0,237,237,237,243.1776591700036,,,,,,,,,,243.1312452139682,243.1776591700036,243.1776591700036,243.92151788400952,243.9285435359925,244.15557109599467,None,0,,,,,sub-003,ses-control-bqse-z-2,run-1,grey,2024-04-25_13h36.59.734,VDT,2023.2.3,120.34255080046589,2024-04-25 13h37.19.614144 +0200,
./images_beh/Sphere_CCW-1.5_BG-grey_stim-white.png,0,238,238,238,244.20176192000508,,,,,,,,,,244.15636692399858,244.20176192000508,244.20176192000508,244.92100779799512,244.94399877201067,245.10718361497857,None,0,,,,,sub-003,ses-control-bqse-z-2,run-1,grey,2024-04-25_13h36.59.734,VDT,2023.2.3,120.34255080046589,2024-04-25 13h37.19.614144 +0200,
./images_beh/Sphere_CW-1.5_BG-grey_stim-white.png,0,239,239,239,245.1544232260203,,,,,,,,,,245.10790727299172,245.18732048600214,245.18732048600214,245.92019938700832,245.9271845939802,246.14002602000255,None,0,,,,,sub-003,ses-control-bqse-z-2,run-1,grey,2024-04-25_13h36.59.734,VDT,2023.2.3,120.34255080046589,2024-04-25 13h37.19.614144 +0200,
./images_beh/Sphere_Ref_BG-grey_stim-yellow.png,0,240,240,240,246.1883655890124,,,,,,,,,,246.1407435410074,246.1883655890124,246.1883655890124,246.91951051098295,246.9367073350004,247.10391489497852,['space'],0,0.3788575460202992,None,,,sub-003,ses-control-bqse-z-2,run-1,grey,2024-04-25_13h36.59.734,VDT,2023.2.3,120.34255080046589,2024-04-25 13h37.19.614144 +0200,
./images_beh/Sphere_Ref_BG-grey_stim-white.png,0,241,241,241,247.14987537101842,,,,,,,,,,247.10509377002018,247.1746125589707,247.1746125589707,247.9193191289669,247.9193191289669,248.12661205098266,None,0,,,,,sub-003,ses-control-bqse-z-2,run-1,grey,2024-04-25_13h36.59.734,VDT,2023.2.3,120.34255080046589,2024-04-25 13h37.19.614144 +0200,
./images_beh/Sphere_CCW-1.5_BG-grey_stim-white.png,0,242,242,242,248.17208986496553,,,,,,,,,,248.12762235599803,248.17208986496553,248.17208986496553,248.91862349701114,248.91862349701114,249.12524104397744,None,0,,,,,sub-003,ses-control-bqse-z-2,run-1,grey,2024-04-25_13h36.59.734,VDT,2023.2.3,120.34255080046589,2024-04-25 13h37.19.614144 +0200,
./images_beh/Sphere_CCW-1.5_BG-grey_stim-white.png,0,243,243,243,249.1698162429966,,,,,,,,,,249.12585500098066,249.1698162429966,249.1698162429966,249.91825075697852,249.91825075697852,250.13795227801893,None,0,,,,,sub-003,ses-control-bqse-z-2,run-1,grey,2024-04-25_13h36.59.734,VDT,2023.2.3,120.34255080046589,2024-04-25 13h37.19.614144 +0200,
./images_beh/Sphere_CW-1.5_BG-grey_stim-yellow.png,0,244,244,244,250.18901171797188,,,,,,,,,,250.13867264101282,250.18901171797188,250.18901171797188,250.9197065240005,250.94103346497286,251.13484719599364,['space'],0,0.43430084898136556,None,,,sub-003,ses-control-bqse-z-2,run-1,grey,2024-04-25_13h36.59.734,VDT,2023.2.3,120.34255080046589,2024-04-25 13h37.19.614144 +0200,
./images_beh/Sphere_CW-1.5_BG-grey_stim-white.png,0,245,245,245,251.17954492400168,,,,,,,,,,251.13586375600426,251.17954492400168,251.17954492400168,251.91717697901186,251.924037905992,252.09149452199927,None,0,,,,,sub-003,ses-control-bqse-z-2,run-1,grey,2024-04-25_13h36.59.734,VDT,2023.2.3,120.34255080046589,2024-04-25 13h37.19.614144 +0200,
./images_beh/Sphere_CCW-1.5_BG-grey_stim-white.png,0,246,246,246,252.1391693680198,,,,,,,,,,252.09233204298653,252.17304772196803,252.17304772196803,252.9221620259923,252.91622682497837,253.11651517899008,None,0,,,,,sub-003,ses-control-bqse-z-2,run-1,grey,2024-04-25_13h36.59.734,VDT,2023.2.3,120.34255080046589,2024-04-25 13h37.19.614144 +0200,
./images_beh/Sphere_CCW-1.5_BG-grey_stim-yellow.png,0,247,247,247,253.15139929502038,,,,,,,,,,253.11730941501446,253.17171402298845,253.17171402298845,253.91564129700419,253.91564129700419,254.08797684201272,['space'],0,0.43529630202101544,None,,,sub-003,ses-control-bqse-z-2,run-1,grey,2024-04-25_13h36.59.734,VDT,2023.2.3,120.34255080046589,2024-04-25 13h37.19.614144 +0200,
./images_beh/Sphere_CW-1.5_BG-grey_stim-white.png,0,248,248,248,254.12232816201868,,,,,,,,,,254.08847926097224,254.17192977597006,254.17192977597006,254.9217725369963,254.91544636699837,255.13310868799454,None,0,,,,,sub-003,ses-control-bqse-z-2,run-1,grey,2024-04-25_13h36.59.734,VDT,2023.2.3,120.34255080046589,2024-04-25 13h37.19.614144 +0200,
./images_beh/Sphere_Ref_BG-grey_stim-white.png,0,249,249,249,255.18145505798748,,,,,,,,,,255.1340304579935,255.18145505798748,255.18145505798748,255.92180271301186,255.92180271301186,256.1547543309862,None,0,,,,,sub-003,ses-control-bqse-z-2,run-1,grey,2024-04-25_13h36.59.734,VDT,2023.2.3,120.34255080046589,2024-04-25 13h37.19.614144 +0200,
./images_beh/Sphere_CW-1.5_BG-grey_stim-white.png,0,250,250,250,256.20135559199844,,,,,,,,,,256.15558711101767,256.20135559199844,256.20135559199844,256.9206702639931,256.94765919301426,257.1491055189981,None,0,,,,,sub-003,ses-control-bqse-z-2,run-1,grey,2024-04-25_13h36.59.734,VDT,2023.2.3,120.34255080046589,2024-04-25 13h37.19.614144 +0200,
./images_beh/Sphere_CW-1.5_BG-grey_stim-white.png,0,251,251,251,257.198046889971,,,,,,,,,,257.1502334760153,257.198046889971,257.198046889971,257.92144658498,257.936070346972,258.08159230597084,None,0,,,,,sub-003,ses-control-bqse-z-2,run-1,grey,2024-04-25_13h36.59.734,VDT,2023.2.3,120.34255080046589,2024-04-25 13h37.19.614144 +0200,
./images_beh/Sphere_CCW-1.5_BG-grey_stim-white.png,0,252,252,252,258.127584878006,,,,,,,,,,258.08287339797243,258.1707802870078,258.1707802870078,258.92045130499173,258.91362801601645,259.11461656400934,None,0,,,,,sub-003,ses-control-bqse-z-2,run-1,grey,2024-04-25_13h36.59.734,VDT,2023.2.3,120.34255080046589,2024-04-25 13h37.19.614144 +0200,
./images_beh/Sphere_CCW-1.5_BG-grey_stim-white.png,0,253,253,253,259.16019637096906,,,,,,,,,,259.115384240984,259.17972363496665,259.17972363496665,259.9322859579697,259.9322859579697,260.11612015997525,None,0,,,,,sub-003,ses-control-bqse-z-2,run-1,grey,2024-04-25_13h36.59.734,VDT,2023.2.3,120.34255080046589,2024-04-25 13h37.19.614144 +0200,
./images_beh/Sphere_CCW-1.5_BG-grey_stim-white.png,0,254,254,254,260.1612566029653,,,,,,,,,,260.1168440699694,260.1671979739913,260.1671979739913,260.91957403800916,260.91269895702135,261.09721246600384,None,0,,,,,sub-003,ses-control-bqse-z-2,run-1,grey,2024-04-25_13h36.59.734,VDT,2023.2.3,120.34255080046589,2024-04-25 13h37.19.614144 +0200,
./images_beh/Sphere_Ref_BG-grey_stim-yellow.png,0,255,255,255,261.140846365015,,,,,,,,,,261.0978287149919,261.16839204501593,261.16839204501593,261.9192264529993,261.9118009490194,262.14695148397004,['space'],0,0.41466252104146406,None,,,sub-003,ses-control-bqse-z-2,run-1,grey,2024-04-25_13h36.59.734,VDT,2023.2.3,120.34255080046589,2024-04-25 13h37.19.614144 +0200,
./images_beh/Sphere_CW-1.5_BG-grey_stim-white.png,0,256,256,256,262.19581444899086,,,,,,,,,,262.14796228602063,262.19581444899086,262.19581444899086,262.92043134296546,262.9448128360091,263.11304383998504,None,0,,,,,sub-003,ses-control-bqse-z-2,run-1,grey,2024-04-25_13h36.59.734,VDT,2023.2.3,120.34255080046589,2024-04-25 13h37.19.614144 +0200,
./images_beh/Sphere_CW-1.5_BG-grey_stim-white.png,0,257,257,257,263.16014668997377,,,,,,,,,,263.11382562096696,263.1661446419894,263.1661446419894,263.9191853419761,263.9117790639866,264.1012502289959,None,0,,,,,sub-003,ses-control-bqse-z-2,run-1,grey,2024-04-25_13h36.59.734,VDT,2023.2.3,120.34255080046589,2024-04-25 13h37.19.614144 +0200,
./images_beh/Sphere_CCW-1.5_BG-grey_stim-yellow.png,0,258,258,258,264.14535176800564,,,,,,,,,,264.1018576080096,264.1665450910223,264.1665450910223,264.9272395519656,264.9130200219806,265.14511387597304,['space'],0,0.4326669010333717,None,,,sub-003,ses-control-bqse-z-2,run-1,grey,2024-04-25_13h36.59.734,VDT,2023.2.3,120.34255080046589,2024-04-25 13h37.19.614144 +0200,
./images_beh/Sphere_CW-1.5_BG-grey_stim-white.png,0,259,259,259,265.19186541601084,,,,,,,,,,265.1461026520119,265.19186541601084,265.19186541601084,265.92961671797093,265.9464367509936,266.17794967402006,None,0,,,,266.1766680579749,sub-003,ses-control-bqse-z-2,run-1,grey,2024-04-25_13h36.59.734,VDT,2023.2.3,120.34255080046589,2024-04-25 13h37.19.614144 +0200,
./images_beh/Sphere_CW-1.5_BG-grey_stim-white.png,0,260,260,260,266.2271753330133,,,,,,,,,,266.1786969979876,266.2271753330133,266.2271753330133,266.9182668540161,266.9761196419713,267.1829971129773,None,0,,,,267.17605209501926,sub-003,ses-control-bqse-z-2,run-1,grey,2024-04-25_13h36.59.734,VDT,2023.2.3,120.34255080046589,2024-04-25 13h37.19.614144 +0200,
./images_beh/Sphere_CCW-1.5_BG-grey_stim-white.png,0,261,261,261,267.2307290780009,,,,,,,,,,267.18391547800275,267.2307290780009,267.2307290780009,267.9173408590141,267.9750283350004,268.09841377899284,None,0,,,,,sub-003,ses-control-bqse-z-2,run-1,grey,2024-04-25_13h36.59.734,VDT,2023.2.3,120.34255080046589,2024-04-25 13h37.19.614144 +0200,
./images_beh/Sphere_Ref_BG-grey_stim-yellow.png,0,262,262,262,268.13691954500973,,,,,,,,,,268.09884587401757,268.1635781369987,268.1635781369987,268.91557609901065,268.9083724679658,269.093034326972,['space'],0,0.40374986600363627,None,,,sub-003,ses-control-bqse-z-2,run-1,grey,2024-04-25_13h36.59.734,VDT,2023.2.3,120.34255080046589,2024-04-25 13h37.19.614144 +0200,
./images_beh/Sphere_CCW-1.5_BG-grey_stim-white.png,0,263,263,263,269.1407523729722,,,,,,,,,,269.09459391300334,269.1637378379819,269.1637378379819,269.92480682599125,269.9109905799851,270.1424267849652,None,0,,,,,sub-003,ses-control-bqse-z-2,run-1,grey,2024-04-25_13h36.59.734,VDT,2023.2.3,120.34255080046589,2024-04-25 13h37.19.614144 +0200,
./images_beh/Sphere_CW-1.5_BG-grey_stim-white.png,0,264,264,264,270.18921202997444,,,,,,,,,,270.14320253400365,270.18921202997444,270.18921202997444,270.9270050349878,270.94085208600154,271.09952385001816,None,0,,,,,sub-003,ses-control-bqse-z-2,run-1,grey,2024-04-25_13h36.59.734,VDT,2023.2.3,120.34255080046589,2024-04-25 13h37.19.614144 +0200,
./images_beh/Sphere_Ref_BG-grey_stim-white.png,0,265,265,265,271.1471798659768,,,,,,,,,,271.10025579301873,271.16365590598434,271.16365590598434,271.9237831039936,271.90924370801076,272.1249629809754,None,0,,,,,sub-003,ses-control-bqse-z-2,run-1,grey,2024-04-25_13h36.59.734,VDT,2023.2.3,120.34255080046589,2024-04-25 13h37.19.614144 +0200,
./images_beh/Sphere_CW-1.5_BG-grey_stim-yellow.png,0,266,266,266,272.1729591409676,,,,,,,,,,272.12575701699825,272.1729591409676,272.1729591409676,272.92591440398246,272.92591440398246,273.10759930696804,['space'],0,0.3859734399593435,None,,,sub-003,ses-control-bqse-z-2,run-1,grey,2024-04-25_13h36.59.734,VDT,2023.2.3,120.34255080046589,2024-04-25 13h37.19.614144 +0200,
./images_beh/Sphere_Ref_BG-grey_stim-white.png,0,267,267,267,273.15483974997187,,,,,,,,,,273.10867811500793,273.1732022659853,273.1732022659853,273.92179479799233,273.92179479799233,274.19022782798856,None,0,,,274.16083658800926,274.16083658800926,sub-003,ses-control-bqse-z-2,run-1,grey,2024-04-25_13h36.59.734,VDT,2023.2.3,120.34255080046589,2024-04-25 13h37.19.614144 +0200,
./images_beh/Sphere_CCW-1.5_BG-grey_stim-white.png,0,268,268,268,274.2384097399772,,,,,,,,,,274.1913002919755,274.2384097399772,274.2384097399772,274.92198250402,274.9919337040046,275.10822699498385,None,0,,,,,sub-003,ses-control-bqse-z-2,run-1,grey,2024-04-25_13h36.59.734,VDT,2023.2.3,120.34255080046589,2024-04-25 13h37.19.614144 +0200,
./images_beh/Sphere_CW-1.5_BG-grey_stim-white.png,0,269,269,269,275.1538573380094,,,,,,,,,,275.10900718101766,275.17183661001036,275.17183661001036,275.9217855610186,275.9102596020093,276.14208522997797,None,0,,,,,sub-003,ses-control-bqse-z-2,run-1,grey,2024-04-25_13h36.59.734,VDT,2023.2.3,120.34255080046589,2024-04-25 13h37.19.614144 +0200,
