image,trials.thisRepN,trials.thisTrialN,trials.thisN,trials.thisIndex,thisRow.t,notes,WaitingForScannerTrigger.started,Vertical.started,key_resp.started,WaitingForScannerTrigger.stopped,key_resp.keys,key_resp.corr,key_resp.rt,key_resp.duration,VDT.started,PresentedLine1.started,key_resp_2.started,FixDot2.started,PresentedLine1.stopped,VDT.stopped,key_resp_2.keys,key_resp_2.corr,key_resp_2.rt,key_resp_2.duration,FixDot2.stopped,key_resp_2.stopped,participant,session,run,BG_color,date,expName,psychopyVersion,frameRate,expStart,
,,,,,,,0.004412784997839481,0.00929107196861878,0.00929107196861878,2.85546307900222,s,0,2.8056230639922433,None,,,,,,,,,,,,,sub-003,ses-control-stim-z-2,run-1,grey,2024-04-25_14h54.46.799,VDT,2023.2.3,120.16648346710772,2024-04-25 14h55.08.074003 +0200,
./images_beh/Sphere_CW-1.5_BG-grey_stim-white.png,0,0,0,0,2.9190093990182504,,,,,,,,,,2.8755700690089725,2.9190093990182504,2.9190093990182504,3.600527847011108,3.667205274978187,3.8184074059827253,None,0,,,,,sub-003,ses-control-stim-z-2,run-1,grey,2024-04-25_14h54.46.799,VDT,2023.2.3,120.16648346710772,2024-04-25 14h55.08.074003 +0200,
./images_beh/Sphere_CCW-1.5_BG-grey_stim-white.png,0,1,1,1,3.873852943012025,,,,,,,,,,3.8211463199695572,3.873852943012025,3.873852943012025,4.600264984997921,4.619288833986502,4.775040919019375,None,0,,,,,sub-003,ses-control-stim-z-2,run-1,grey,2024-04-25_14h54.46.799,VDT,2023.2.3,120.16648346710772,2024-04-25 14h55.08.074003 +0200,
./images_beh/Sphere_CW-1.5_BG-grey_stim-white.png,0,2,2,2,4.823684289003722,,,,,,,,,,4.7757824690197594,4.856574517965782,4.856574517965782,5.5995925450115465,5.5995925450115465,5.81990537699312,None,0,,,,,sub-003,ses-control-stim-z-2,run-1,grey,2024-04-25_14h54.46.799,VDT,2023.2.3,120.16648346710772,2024-04-25 14h55.08.074003 +0200,
./images_beh/Sphere_CW-1.5_BG-grey_stim-white.png,0,3,3,3,5.871774029976223,,,,,,,,,,5.820639759011101,5.871774029976223,5.871774029976223,6.599143241008278,6.615707741002552,6.7736757670063525,None,0,,,,,sub-003,ses-control-stim-z-2,run-1,grey,2024-04-25_14h54.46.799,VDT,2023.2.3,120.16648346710772,2024-04-25 14h55.08.074003 +0200,
./images_beh/Sphere_CCW-1.5_BG-grey_stim-yellow.png,0,4,4,4,6.8245893539860845,,,,,,,,,,6.775019968976267,6.853843707009219,6.853843707009219,7.598520996980369,7.598520996980369,7.7831018139841035,['space'],0,0.42505041195545346,None,,,sub-003,ses-control-stim-z-2,run-1,grey,2024-04-25_14h54.46.799,VDT,2023.2.3,120.16648346710772,2024-04-25 14h55.08.074003 +0200,
./images_beh/Sphere_Ref_BG-grey_stim-white.png,0,5,5,5,7.830693799012806,,,,,,,,,,7.786005742964335,7.853675018996,7.853675018996,8.598534770018887,8.598534770018887,8.78933345497353,None,0,,,,,sub-003,ses-control-stim-z-2,run-1,grey,2024-04-25_14h54.46.799,VDT,2023.2.3,120.16648346710772,2024-04-25 14h55.08.074003 +0200,
./images_beh/Sphere_CCW-1.5_BG-grey_stim-white.png,0,6,6,6,8.836356557963882,,,,,,,,,,8.790089348971378,8.853997719008476,8.853997719008476,9.597775191010442,9.597775191010442,9.772562658996321,None,0,,,,,sub-003,ses-control-stim-z-2,run-1,grey,2024-04-25_14h54.46.799,VDT,2023.2.3,120.16648346710772,2024-04-25 14h55.08.074003 +0200,
./images_beh/Sphere_Ref_BG-grey_stim-yellow.png,0,7,7,7,9.822575556987431,,,,,,,,,,9.773332278011367,9.854427621001378,9.854427621001378,10.6045578509802,10.59717736998573,10.83811325498391,['space'],0,0.45680686499690637,None,,,sub-003,ses-control-stim-z-2,run-1,grey,2024-04-25_14h54.46.799,VDT,2023.2.3,120.16648346710772,2024-04-25 14h55.08.074003 +0200,
./images_beh/Sphere_CCW-1.5_BG-grey_stim-white.png,0,8,8,8,10.886122389987577,,,,,,,,,,10.839084705978166,10.886122389987577,10.886122389987577,11.604534538986627,11.629900974978227,11.830901686975267,None,0,,,,,sub-003,ses-control-stim-z-2,run-1,grey,2024-04-25_14h54.46.799,VDT,2023.2.3,120.16648346710772,2024-04-25 14h55.08.074003 +0200,
./images_beh/Sphere_CW-1.5_BG-grey_stim-white.png,0,9,9,9,11.878353137988597,,,,,,,,,,11.831861070008017,11.878353137988597,11.878353137988597,12.604540650965646,12.618631688994355,12.803009142982773,None,0,,,,,sub-003,ses-control-stim-z-2,run-1,grey,2024-04-25_14h54.46.799,VDT,2023.2.3,120.16648346710772,2024-04-25 14h55.08.074003 +0200,
./images_beh/Sphere_CW-1.5_BG-grey_stim-yellow.png,0,10,10,10,12.848325009981636,,,,,,,,,,12.803769493009895,12.862457146984525,12.862457146984525,13.602412672014907,13.602412672014907,13.802900020964444,['space'],0,0.4251644730102271,None,,,sub-003,ses-control-stim-z-2,run-1,grey,2024-04-25_14h54.46.799,VDT,2023.2.3,120.16648346710772,2024-04-25 14h55.08.074003 +0200,
./images_beh/Sphere_Ref_BG-grey_stim-white.png,0,11,11,11,13.850419811962638,,,,,,,,,,13.803904505970422,13.861684925970621,13.861684925970621,14.601000518014189,14.601000518014189,14.86197142500896,None,0,,,14.844586679013446,14.849024256982375,sub-003,ses-control-stim-z-2,run-1,grey,2024-04-25_14h54.46.799,VDT,2023.2.3,120.16648346710772,2024-04-25 14h55.08.074003 +0200,
./images_beh/Sphere_CCW-1.5_BG-grey_stim-white.png,0,12,12,12,14.90637844701996,,,,,,,,,,14.862885257985909,14.90637844701996,14.90637844701996,15.60217070399085,15.650941950967535,15.785352947015781,None,0,,,,,sub-003,ses-control-stim-z-2,run-1,grey,2024-04-25_14h54.46.799,VDT,2023.2.3,120.16648346710772,2024-04-25 14h55.08.074003 +0200,
./images_beh/Sphere_CW-1.5_BG-grey_stim-white.png,0,13,13,13,15.834533826971892,,,,,,,,,,15.786419630981982,15.849542164010927,15.849542164010927,16.599263731972314,16.59368844697019,16.778007328975946,None,0,,,,,sub-003,ses-control-stim-z-2,run-1,grey,2024-04-25_14h54.46.799,VDT,2023.2.3,120.16648346710772,2024-04-25 14h55.08.074003 +0200,
./images_beh/Sphere_Ref_BG-grey_stim-yellow.png,0,14,14,14,16.828216663969215,,,,,,,,,,16.779156094009522,16.84946305199992,16.84946305199992,17.600269932998344,17.59364680101862,17.76745009701699,['space'],0,0.3737816660432145,None,,,sub-003,ses-control-stim-z-2,run-1,grey,2024-04-25_14h54.46.799,VDT,2023.2.3,120.16648346710772,2024-04-25 14h55.08.074003 +0200,
./images_beh/Sphere_CCW-1.5_BG-grey_stim-white.png,0,15,15,15,17.812827728979755,,,,,,,,,,17.768218813987914,17.849542709009256,17.849542709009256,18.600181547983084,18.5931057750131,18.7943307349924,None,0,,,,,sub-003,ses-control-stim-z-2,run-1,grey,2024-04-25_14h54.46.799,VDT,2023.2.3,120.16648346710772,2024-04-25 14h55.08.074003 +0200,
./images_beh/Sphere_CW-1.5_BG-grey_stim-white.png,0,16,16,16,18.845959247963037,,,,,,,,,,18.79508742596954,18.859747597016394,18.859747597016394,19.599140189005993,19.599140189005993,19.75981552200392,None,0,,,,,sub-003,ses-control-stim-z-2,run-1,grey,2024-04-25_14h54.46.799,VDT,2023.2.3,120.16648346710772,2024-04-25 14h55.08.074003 +0200,
./images_beh/Sphere_CCW-1.5_BG-grey_stim-white.png,0,17,17,17,19.806866226019338,,,,,,,,,,19.76092376699671,19.848516525991727,19.848516525991727,20.61139988101786,20.59458807297051,20.829291161964647,None,0,,,,,sub-003,ses-control-stim-z-2,run-1,grey,2024-04-25_14h54.46.799,VDT,2023.2.3,120.16648346710772,2024-04-25 14h55.08.074003 +0200,
./images_beh/Sphere_CCW-1.5_BG-grey_stim-white.png,0,18,18,18,20.87805684597697,,,,,,,,,,20.830031602992676,20.87805684597697,20.87805684597697,21.59844243299449,21.624757789017167,21.810046466009226,None,0,,,,,sub-003,ses-control-stim-z-2,run-1,grey,2024-04-25_14h54.46.799,VDT,2023.2.3,120.16648346710772,2024-04-25 14h55.08.074003 +0200,
./images_beh/Sphere_CW-1.5_BG-grey_stim-white.png,0,19,19,19,21.859443930967245,,,,,,,,,,21.81082797597628,21.859443930967245,21.859443930967245,22.607854633009993,22.607854633009993,22.808714021986816,None,0,,,,,sub-003,ses-control-stim-z-2,run-1,grey,2024-04-25_14h54.46.799,VDT,2023.2.3,120.16648346710772,2024-04-25 14h55.08.074003 +0200,
./images_beh/Sphere_CW-1.5_BG-grey_stim-yellow.png,0,20,20,20,22.854994265013374,,,,,,,,,,22.809508745966014,22.854994265013374,22.854994265013374,23.596219789003953,23.596219789003953,23.8278618750046,['space'],0,0.3605364940012805,None,,,sub-003,ses-control-stim-z-2,run-1,grey,2024-04-25_14h54.46.799,VDT,2023.2.3,120.16648346710772,2024-04-25 14h55.08.074003 +0200,
./images_beh/Sphere_CCW-1.5_BG-grey_stim-white.png,0,21,21,21,23.87799766700482,,,,,,,,,,23.828834917978384,23.87799766700482,23.87799766700482,24.607114507991355,24.62344509398099,24.798024390998762,None,0,,,,,sub-003,ses-control-stim-z-2,run-1,grey,2024-04-25_14h54.46.799,VDT,2023.2.3,120.16648346710772,2024-04-25 14h55.08.074003 +0200,
./images_beh/Sphere_Ref_BG-grey_stim-white.png,0,22,22,22,24.845881611981895,,,,,,,,,,24.7990562649793,24.856322243984323,24.856322243984323,25.597095900971908,25.597095900971908,25.77495159598766,None,0,,,,,sub-003,ses-control-stim-z-2,run-1,grey,2024-04-25_14h54.46.799,VDT,2023.2.3,120.16648346710772,2024-04-25 14h55.08.074003 +0200,
./images_beh/Sphere_CCW-1.5_BG-grey_stim-white.png,0,23,23,23,25.818214914994314,,,,,,,,,,25.77561269601574,25.844577196985483,25.844577196985483,26.596675758017227,26.589142448967323,26.861742260982282,None,0,,,26.83979224198265,26.83979224198265,sub-003,ses-control-stim-z-2,run-1,grey,2024-04-25_14h54.46.799,VDT,2023.2.3,120.16648346710772,2024-04-25 14h55.08.074003 +0200,
./images_beh/Sphere_CW-1.5_BG-grey_stim-white.png,0,24,24,24,26.91112309799064,,,,,,,,,,26.862536949978676,26.91112309799064,26.91112309799064,27.597242767980788,27.655037454969715,27.80644428700907,None,0,,,,,sub-003,ses-control-stim-z-2,run-1,grey,2024-04-25_14h54.46.799,VDT,2023.2.3,120.16648346710772,2024-04-25 14h55.08.074003 +0200,
./images_beh/Sphere_Ref_BG-grey_stim-yellow.png,0,25,25,25,27.853863860014826,,,,,,,,,,27.80747707700357,27.853863860014826,27.853863860014826,28.5944514030125,28.5944514030125,28.791124472976662,['space'],0,0.40245389501797035,None,,,sub-003,ses-control-stim-z-2,run-1,grey,2024-04-25_14h54.46.799,VDT,2023.2.3,120.16648346710772,2024-04-25 14h55.08.074003 +0200,
./images_beh/Sphere_Ref_BG-grey_stim-white.png,0,26,26,26,28.837463598989416,,,,,,,,,,28.792092263000086,28.85449596401304,28.85449596401304,29.606719004979823,29.592529465968255,29.78842433798127,None,0,,,,,sub-003,ses-control-stim-z-2,run-1,grey,2024-04-25_14h54.46.799,VDT,2023.2.3,120.16648346710772,2024-04-25 14h55.08.074003 +0200,
./images_beh/Sphere_CCW-1.5_BG-grey_stim-white.png,0,27,27,27,29.830036210012622,,,,,,,,,,29.789093093015254,29.853466734988615,29.853466734988615,30.603693373966962,30.5931745779817,30.777747765998356,None,0,,,,,sub-003,ses-control-stim-z-2,run-1,grey,2024-04-25_14h54.46.799,VDT,2023.2.3,120.16648346710772,2024-04-25 14h55.08.074003 +0200,
./images_beh/Sphere_Ref_BG-grey_stim-yellow.png,0,28,28,28,30.827196313010063,,,,,,,,,,30.778500593965873,30.855531585984863,30.855531585984863,31.603202965983655,31.603202965983655,31.859136588987894,['space'],0,0.4245214220136404,None,31.84267991001252,31.853084983013105,sub-003,ses-control-stim-z-2,run-1,grey,2024-04-25_14h54.46.799,VDT,2023.2.3,120.16648346710772,2024-04-25 14h55.08.074003 +0200,
./images_beh/Sphere_CW-1.5_BG-grey_stim-white.png,0,29,29,29,31.90693223901326,,,,,,,,,,31.860423794016242,31.90693223901326,31.90693223901326,32.60257496696431,32.65264726197347,32.770353630010504,None,0,,,,,sub-003,ses-control-stim-z-2,run-1,grey,2024-04-25_14h54.46.799,VDT,2023.2.3,120.16648346710772,2024-04-25 14h55.08.074003 +0200,
./images_beh/Sphere_CCW-1.5_BG-grey_stim-white.png,0,30,30,30,32.81587903498439,,,,,,,,,,32.77116326498799,32.852417649992276,32.852417649992276,33.60232514399104,33.59134165401338,33.775933960976545,None,0,,,,,sub-003,ses-control-stim-z-2,run-1,grey,2024-04-25_14h54.46.799,VDT,2023.2.3,120.16648346710772,2024-04-25 14h55.08.074003 +0200,
./images_beh/Sphere_CCW-1.5_BG-grey_stim-yellow.png,0,31,31,31,33.82416929397732,,,,,,,,,,33.77652647800278,33.851869608974084,33.851869608974084,34.60168468096526,34.591382119979244,34.84148771100445,['space'],0,0.38765213498845696,None,34.84063201601384,34.84063201601384,sub-003,ses-control-stim-z-2,run-1,grey,2024-04-25_14h54.46.799,VDT,2023.2.3,120.16648346710772,2024-04-25 14h55.08.074003 +0200,
./images_beh/Sphere_CW-1.5_BG-grey_stim-white.png,0,32,32,32,34.88851776201045,,,,,,,,,,34.842453596007545,34.88851776201045,34.88851776201045,35.60953574697487,35.63688058999833,35.791263755003456,None,0,,,,,sub-003,ses-control-stim-z-2,run-1,grey,2024-04-25_14h54.46.799,VDT,2023.2.3,120.16648346710772,2024-04-25 14h55.08.074003 +0200,
./images_beh/Sphere_CW-1.5_BG-grey_stim-white.png,0,33,33,33,35.830588580982294,,,,,,,,,,35.79198856599396,35.851400739979,35.851400739979,36.602998595975805,36.58979553997051,36.79088409396354,None,0,,,,,sub-003,ses-control-stim-z-2,run-1,grey,2024-04-25_14h54.46.799,VDT,2023.2.3,120.16648346710772,2024-04-25 14h55.08.074003 +0200,
./images_beh/Sphere_CW-1.5_BG-grey_stim-white.png,0,34,34,34,36.83517819800181,,,,,,,,,,36.79164827498607,36.85667489701882,36.85667489701882,37.61703705700347,37.61703705700347,37.81817221199162,None,0,,,,,sub-003,ses-control-stim-z-2,run-1,grey,2024-04-25_14h54.46.799,VDT,2023.2.3,120.16648346710772,2024-04-25 14h55.08.074003 +0200,
./images_beh/Sphere_CCW-1.5_BG-grey_stim-white.png,0,35,35,35,37.866905500006396,,,,,,,,,,37.818943960999604,37.866905500006396,37.866905500006396,38.619848164962605,38.619848164962605,38.784014214994386,None,0,,,,,sub-003,ses-control-stim-z-2,run-1,grey,2024-04-25_14h54.46.799,VDT,2023.2.3,120.16648346710772,2024-04-25 14h55.08.074003 +0200,
./images_beh/Sphere_CW-1.5_BG-grey_stim-white.png,0,36,36,36,38.82943347096443,,,,,,,,,,38.78475311299553,38.84904880000977,38.84904880000977,39.59942269598832,39.58837156597292,39.83828846801771,None,0,,,39.83750309498282,39.83750309498282,sub-003,ses-control-stim-z-2,run-1,grey,2024-04-25_14h54.46.799,VDT,2023.2.3,120.16648346710772,2024-04-25 14h55.08.074003 +0200,
./images_beh/Sphere_CW-1.5_BG-grey_stim-white.png,0,37,37,37,39.884448155004065,,,,,,,,,,39.838882225973066,39.884448155004065,39.884448155004065,40.59855263901409,40.634102860989515,40.83879450400127,None,0,,,40.837934875977226,,sub-003,ses-control-stim-z-2,run-1,grey,2024-04-25_14h54.46.799,VDT,2023.2.3,120.16648346710772,2024-04-25 14h55.08.074003 +0200,
./images_beh/Sphere_CCW-1.5_BG-grey_stim-yellow.png,0,38,38,38,40.88637296197703,,,,,,,,,,40.83953100099461,40.88637296197703,40.88637296197703,41.59813006600598,41.63122716196813,41.78789517300902,['space'],0,0.3927509000059217,None,,,sub-003,ses-control-stim-z-2,run-1,grey,2024-04-25_14h54.46.799,VDT,2023.2.3,120.16648346710772,2024-04-25 14h55.08.074003 +0200,
./images_beh/Sphere_Ref_BG-grey_stim-white.png,0,39,39,39,41.830779724987224,,,,,,,,,,41.78867901599733,41.85290808597347,41.85290808597347,42.59759939496871,42.59759939496871,42.79825498396531,None,0,,,,,sub-003,ses-control-stim-z-2,run-1,grey,2024-04-25_14h54.46.799,VDT,2023.2.3,120.16648346710772,2024-04-25 14h55.08.074003 +0200,
./images_beh/Sphere_CW-1.5_BG-grey_stim-white.png,0,40,40,40,42.839185254997574,,,,,,,,,,42.79889513400849,42.847132638969924,42.847132638969924,43.60418780997861,43.596924051991664,43.78771659400081,None,0,,,,,sub-003,ses-control-stim-z-2,run-1,grey,2024-04-25_14h54.46.799,VDT,2023.2.3,120.16648346710772,2024-04-25 14h55.08.074003 +0200,
./images_beh/Sphere_CCW-1.5_BG-grey_stim-white.png,0,41,41,41,43.82910305901896,,,,,,,,,,43.78822723898338,43.8529074320104,43.8529074320104,44.602791143988725,44.59650549996877,44.820153717009816,None,0,,,,,sub-003,ses-control-stim-z-2,run-1,grey,2024-04-25_14h54.46.799,VDT,2023.2.3,120.16648346710772,2024-04-25 14h55.08.074003 +0200,
./images_beh/Sphere_CW-1.5_BG-grey_stim-white.png,0,42,42,42,44.869564189983066,,,,,,,,,,44.82090454600984,44.869564189983066,44.869564189983066,45.60387318697758,45.61246629996458,45.813639602973126,None,0,,,,,sub-003,ses-control-stim-z-2,run-1,grey,2024-04-25_14h54.46.799,VDT,2023.2.3,120.16648346710772,2024-04-25 14h55.08.074003 +0200,
./images_beh/Sphere_CCW-1.5_BG-grey_stim-white.png,0,43,43,43,45.86205787799554,,,,,,,,,,45.814743655966595,45.86205787799554,45.86205787799554,46.60279305500444,46.60279305500444,46.79637317999732,None,0,,,,,sub-003,ses-control-stim-z-2,run-1,grey,2024-04-25_14h54.46.799,VDT,2023.2.3,120.16648346710772,2024-04-25 14h55.08.074003 +0200,
./images_beh/Sphere_Ref_BG-grey_stim-yellow.png,0,44,44,44,46.839986698993016,,,,,,,,,,46.79700141801732,46.845482954988256,46.845482954988256,47.60147282097023,47.583699519978836,47.80132617900381,['space'],0,0.3777512399828993,None,,,sub-003,ses-control-stim-z-2,run-1,grey,2024-04-25_14h54.46.799,VDT,2023.2.3,120.16648346710772,2024-04-25 14h55.08.074003 +0200,
./images_beh/Sphere_CCW-1.5_BG-grey_stim-white.png,0,45,45,45,47.84416107099969,,,,,,,,,,47.802107198978774,47.849273493979126,47.849273493979126,48.60053344501648,48.59422710997751,48.76881581399357,None,0,,,,,sub-003,ses-control-stim-z-2,run-1,grey,2024-04-25_14h54.46.799,VDT,2023.2.3,120.16648346710772,2024-04-25 14h55.08.074003 +0200,
./images_beh/Sphere_Ref_BG-grey_stim-white.png,0,46,46,46,48.816680149990134,,,,,,,,,,48.76954479300184,48.850565014989115,48.850565014989115,49.60119237500476,49.59396441199351,49.777867909986526,None,0,,,,,sub-003,ses-control-stim-z-2,run-1,grey,2024-04-25_14h54.46.799,VDT,2023.2.3,120.16648346710772,2024-04-25 14h55.08.074003 +0200,
./images_beh/Sphere_CW-1.5_BG-grey_stim-yellow.png,0,47,47,47,49.82346192601835,,,,,,,,,,49.778766494011506,49.84900814498542,49.84900814498542,50.598321508965455,50.592774003976956,50.77732181199826,['space'],0,0.4153110230108723,None,,,sub-003,ses-control-stim-z-2,run-1,grey,2024-04-25_14h54.46.799,VDT,2023.2.3,120.16648346710772,2024-04-25 14h55.08.074003 +0200,
./images_beh/Sphere_CCW-1.5_BG-grey_stim-white.png,0,48,48,48,50.826508837984875,,,,,,,,,,50.77841533097671,50.84778984700097,50.84778984700097,51.60017200396396,51.59296365699265,51.84638018597616,None,0,,,51.84518723998917,51.84518723998917,sub-003,ses-control-stim-z-2,run-1,grey,2024-04-25_14h54.46.799,VDT,2023.2.3,120.16648346710772,2024-04-25 14h55.08.074003 +0200,
./images_beh/Sphere_CW-1.5_BG-grey_stim-white.png,0,49,49,49,51.89369296096265,,,,,,,,,,51.847159363969695,51.89369296096265,51.89369296096265,52.60038945899578,52.64198735001264,52.89883215399459,None,0,,,52.84778720396571,52.89256656001089,sub-003,ses-control-stim-z-2,run-1,grey,2024-04-25_14h54.46.799,VDT,2023.2.3,120.16648346710772,2024-04-25 14h55.08.074003 +0200,
./images_beh/Sphere_Ref_BG-grey_stim-yellow.png,0,50,50,50,52.94827912800247,,,,,,,,,,52.89972547197249,52.94827912800247,52.94827912800247,53.60071471397532,53.70912902301643,53.82847533898894,['space'],0,0.5154542680247687,None,,,sub-003,ses-control-stim-z-2,run-1,grey,2024-04-25_14h54.46.799,VDT,2023.2.3,120.16648346710772,2024-04-25 14h55.08.074003 +0200,
./images_beh/Sphere_CCW-1.5_BG-grey_stim-white.png,0,51,51,51,53.87658912001643,,,,,,,,,,53.82953260699287,53.87658912001643,53.87658912001643,54.60026072099572,54.61700179800391,54.81164940400049,None,0,,,,,sub-003,ses-control-stim-z-2,run-1,grey,2024-04-25_14h54.46.799,VDT,2023.2.3,120.16648346710772,2024-04-25 14h55.08.074003 +0200,
./images_beh/Sphere_CW-1.5_BG-grey_stim-white.png,0,52,52,52,54.86235340597341,,,,,,,,,,54.812452937010676,54.86235340597341,54.86235340597341,55.59819101099856,55.609954020008445,55.76172680599848,None,0,,,,,sub-003,ses-control-stim-z-2,run-1,grey,2024-04-25_14h54.46.799,VDT,2023.2.3,120.16648346710772,2024-04-25 14h55.08.074003 +0200,
./images_beh/Sphere_CCW-1.5_BG-grey_stim-white.png,0,53,53,53,55.810031834000256,,,,,,,,,,55.762511103006545,55.848561773018446,55.848561773018446,56.59667790698586,56.590106843970716,56.79366555198794,None,0,,,,,sub-003,ses-control-stim-z-2,run-1,grey,2024-04-25_14h54.46.799,VDT,2023.2.3,120.16648346710772,2024-04-25 14h55.08.074003 +0200,
./images_beh/Sphere_CW-1.5_BG-grey_stim-white.png,0,54,54,54,56.840465263987426,,,,,,,,,,56.794461919984315,56.84599659300875,56.84599659300875,57.596216858015396,57.58989792998182,57.790666634973604,None,0,,,,,sub-003,ses-control-stim-z-2,run-1,grey,2024-04-25_14h54.46.799,VDT,2023.2.3,120.16648346710772,2024-04-25 14h55.08.074003 +0200,
./images_beh/Sphere_CW-1.5_BG-grey_stim-white.png,0,55,55,55,57.83380004798528,,,,,,,,,,57.791318723990116,57.845126105996314,57.845126105996314,58.59704329597298,58.58944984799018,58.826098737015855,None,0,,,,,sub-003,ses-control-stim-z-2,run-1,grey,2024-04-25_14h54.46.799,VDT,2023.2.3,120.16648346710772,2024-04-25 14h55.08.074003 +0200,
./images_beh/Sphere_CW-1.5_BG-grey_stim-white.png,0,56,56,56,58.874176167009864,,,,,,,,,,58.82684056600556,58.874176167009864,58.874176167009864,59.596660768962465,59.62205345998518,59.82804286997998,None,0,,,,,sub-003,ses-control-stim-z-2,run-1,grey,2024-04-25_14h54.46.799,VDT,2023.2.3,120.16648346710772,2024-04-25 14h55.08.074003 +0200,
./images_beh/Sphere_Ref_BG-grey_stim-yellow.png,0,57,57,57,59.86396358697675,,,,,,,,,,59.82841533399187,59.86396358697675,59.86396358697675,60.59707804501522,60.604697339003906,60.805068576999474,['space'],0,0.39931930898455903,None,,,sub-003,ses-control-stim-z-2,run-1,grey,2024-04-25_14h54.46.799,VDT,2023.2.3,120.16648346710772,2024-04-25 14h55.08.074003 +0200,
./images_beh/Sphere_CCW-1.5_BG-grey_stim-white.png,0,58,58,58,60.84958885697415,,,,,,,,,,60.806002894009,60.854423542972654,60.854423542972654,61.60429483198095,61.59225080499891,61.79569207696477,None,0,,,,,sub-003,ses-control-stim-z-2,run-1,grey,2024-04-25_14h54.46.799,VDT,2023.2.3,120.16648346710772,2024-04-25 14h55.08.074003 +0200,
./images_beh/Sphere_CCW-1.5_BG-grey_stim-white.png,0,59,59,59,61.844731818011496,,,,,,,,,,61.79647441301495,61.853883476986084,61.853883476986084,62.60415972198825,62.5933619189891,62.87784361600643,None,0,,,62.84381767199375,62.84381767199375,sub-003,ses-control-stim-z-2,run-1,grey,2024-04-25_14h54.46.799,VDT,2023.2.3,120.16648346710772,2024-04-25 14h55.08.074003 +0200,
./images_beh/Sphere_CW-1.5_BG-grey_stim-white.png,0,60,60,60,62.92677056096727,,,,,,,,,,62.878576806979254,62.92677056096727,62.92677056096727,63.603425701963715,63.66996090399334,63.821471709990874,None,0,,,,,sub-003,ses-control-stim-z-2,run-1,grey,2024-04-25_14h54.46.799,VDT,2023.2.3,120.16648346710772,2024-04-25 14h55.08.074003 +0200,
./images_beh/Sphere_CCW-1.5_BG-grey_stim-white.png,0,61,61,61,63.86859161301982,,,,,,,,,,63.822260850982275,63.86859161301982,63.86859161301982,64.60298814799171,64.61016007099533,64.83775316196261,None,0,,,,,sub-003,ses-control-stim-z-2,run-1,grey,2024-04-25_14h54.46.799,VDT,2023.2.3,120.16648346710772,2024-04-25 14h55.08.074003 +0200,
./images_beh/Sphere_Ref_BG-grey_stim-yellow.png,0,62,62,62,64.88660609000362,,,,,,,,,,64.8385317120119,64.88660609000362,64.88660609000362,65.61079658201197,65.62614097597543,65.84374445601134,['space'],0,0.38543459901120514,None,,,sub-003,ses-control-stim-z-2,run-1,grey,2024-04-25_14h54.46.799,VDT,2023.2.3,120.16648346710772,2024-04-25 14h55.08.074003 +0200,
./images_beh/Sphere_Ref_BG-grey_stim-white.png,0,63,63,63,65.89280872797826,,,,,,,,,,65.84474048099946,65.89280872797826,65.89280872797826,66.60216416697949,66.63543444301467,66.79284942999948,None,0,,,,,sub-003,ses-control-stim-z-2,run-1,grey,2024-04-25_14h54.46.799,VDT,2023.2.3,120.16648346710772,2024-04-25 14h55.08.074003 +0200,
./images_beh/Sphere_CW-1.5_BG-grey_stim-white.png,0,64,64,64,66.84052399097709,,,,,,,,,,66.79360384796746,66.85156714398181,66.85156714398181,67.6015019720071,67.59101969597396,67.80248324299464,None,0,,,,,sub-003,ses-control-stim-z-2,run-1,grey,2024-04-25_14h54.46.799,VDT,2023.2.3,120.16648346710772,2024-04-25 14h55.08.074003 +0200,
./images_beh/Sphere_CW-1.5_BG-grey_stim-yellow.png,0,65,65,65,67.84885561099509,,,,,,,,,,67.8033265969716,67.8549571869662,67.8549571869662,68.60093314998085,68.60093314998085,68.82526538299862,['space'],0,0.38435507204849273,None,,,sub-003,ses-control-stim-z-2,run-1,grey,2024-04-25_14h54.46.799,VDT,2023.2.3,120.16648346710772,2024-04-25 14h55.08.074003 +0200,
./images_beh/Sphere_CCW-1.5_BG-grey_stim-white.png,0,66,66,66,68.86889233096736,,,,,,,,,,68.82603115198435,68.86889233096736,68.86889233096736,69.600371189008,69.61721890297486,69.80093202798162,None,0,,,,,sub-003,ses-control-stim-z-2,run-1,grey,2024-04-25_14h54.46.799,VDT,2023.2.3,120.16648346710772,2024-04-25 14h55.08.074003 +0200,
./images_beh/Sphere_CCW-1.5_BG-grey_stim-white.png,0,67,67,67,69.84388097497867,,,,,,,,,,69.80186142202001,69.84949483600212,69.84949483600212,70.60015530401142,70.58959576196503,70.81877124396851,None,0,,,,,sub-003,ses-control-stim-z-2,run-1,grey,2024-04-25_14h54.46.799,VDT,2023.2.3,120.16648346710772,2024-04-25 14h55.08.074003 +0200,
./images_beh/Sphere_Ref_BG-grey_stim-white.png,0,68,68,68,70.86588283901801,,,,,,,,,,70.81977447500685,70.86588283901801,70.86588283901801,71.61637557501672,71.61637557501672,71.78401997400215,None,0,,,,,sub-003,ses-control-stim-z-2,run-1,grey,2024-04-25_14h54.46.799,VDT,2023.2.3,120.16648346710772,2024-04-25 14h55.08.074003 +0200,
./images_beh/Sphere_CCW-1.5_BG-grey_stim-yellow.png,0,69,69,69,71.83379457698902,,,,,,,,,,71.78508093301207,71.85537860600743,71.85537860600743,72.59937249898212,72.59937249898212,72.78662294498645,['space'],0,0.4004376350203529,None,,,sub-003,ses-control-stim-z-2,run-1,grey,2024-04-25_14h54.46.799,VDT,2023.2.3,120.16648346710772,2024-04-25 14h55.08.074003 +0200,
./images_beh/Sphere_CCW-1.5_BG-grey_stim-white.png,0,70,70,70,72.83582501998171,,,,,,,,,,72.78760870196857,72.85485552996397,72.85485552996397,73.59822442801669,73.59822442801669,73.80717173399171,None,0,,,,,sub-003,ses-control-stim-z-2,run-1,grey,2024-04-25_14h54.46.799,VDT,2023.2.3,120.16648346710772,2024-04-25 14h55.08.074003 +0200,
./images_beh/Sphere_CW-1.5_BG-grey_stim-white.png,0,71,71,71,73.85663291596575,,,,,,,,,,73.80790157598676,73.85663291596575,73.85663291596575,74.59802601899719,74.6049521699897,74.81508217001101,None,0,,,,,sub-003,ses-control-stim-z-2,run-1,grey,2024-04-25_14h54.46.799,VDT,2023.2.3,120.16648346710772,2024-04-25 14h55.08.074003 +0200,
./images_beh/Sphere_CCW-1.5_BG-grey_stim-white.png,0,72,72,72,74.85582989401883,,,,,,,,,,74.81587050697999,74.85582989401883,74.85582989401883,75.60459439700935,75.60459439700935,75.77151897596195,None,0,,,,,sub-003,ses-control-stim-z-2,run-1,grey,2024-04-25_14h54.46.799,VDT,2023.2.3,120.16648346710772,2024-04-25 14h55.08.074003 +0200,
./images_beh/Sphere_CCW-1.5_BG-grey_stim-white.png,0,73,73,73,75.81493863399373,,,,,,,,,,75.77210732200183,75.85364779498195,75.85364779498195,76.60370557097485,76.59667212300701,76.76491257100133,None,0,,,,,sub-003,ses-control-stim-z-2,run-1,grey,2024-04-25_14h54.46.799,VDT,2023.2.3,120.16648346710772,2024-04-25 14h55.08.074003 +0200,
./images_beh/Sphere_CCW-1.5_BG-grey_stim-yellow.png,0,74,74,74,76.80985018599313,,,,,,,,,,76.7656354290084,76.85295772500103,76.85295772500103,77.60383149597328,77.59658735897392,77.80353010399267,['space'],0,0.4123528440250084,None,,,sub-003,ses-control-stim-z-2,run-1,grey,2024-04-25_14h54.46.799,VDT,2023.2.3,120.16648346710772,2024-04-25 14h55.08.074003 +0200,
./images_beh/Sphere_CW-1.5_BG-grey_stim-white.png,0,75,75,75,77.8467145379982,,,,,,,,,,77.80429967696546,77.86269147600979,77.86269147600979,78.60322959598852,78.60322959598852,78.79660307697486,None,0,,,,,sub-003,ses-control-stim-z-2,run-1,grey,2024-04-25_14h54.46.799,VDT,2023.2.3,120.16648346710772,2024-04-25 14h55.08.074003 +0200,
./images_beh/Sphere_CCW-1.5_BG-grey_stim-white.png,0,76,76,76,78.84279396396596,,,,,,,,,,78.79772266396321,78.8492209049873,78.8492209049873,79.60272327298298,79.59556957200402,79.77997097099433,None,0,,,,,sub-003,ses-control-stim-z-2,run-1,grey,2024-04-25_14h54.46.799,VDT,2023.2.3,120.16648346710772,2024-04-25 14h55.08.074003 +0200,
./images_beh/Sphere_CCW-1.5_BG-grey_stim-white.png,0,77,77,77,79.82743674097583,,,,,,,,,,79.78079165698728,79.85097725398373,79.85097725398373,80.59940779401222,80.59409877896542,80.84594245598419,None,0,,,80.84468789800303,80.84468789800303,sub-003,ses-control-stim-z-2,run-1,grey,2024-04-25_14h54.46.799,VDT,2023.2.3,120.16648346710772,2024-04-25 14h55.08.074003 +0200,
./images_beh/Sphere_Ref_BG-grey_stim-yellow.png,0,78,78,78,80.89074193197303,,,,,,,,,,80.84657891298411,80.89074193197303,80.89074193197303,81.6022373890155,81.63359468901763,81.8019425200182,['space'],0,0.3569988629897125,None,,,sub-003,ses-control-stim-z-2,run-1,grey,2024-04-25_14h54.46.799,VDT,2023.2.3,120.16648346710772,2024-04-25 14h55.08.074003 +0200,
./images_beh/Sphere_Ref_BG-grey_stim-white.png,0,79,79,79,81.85126040596515,,,,,,,,,,81.80291160498746,81.86069697397761,81.86069697397761,82.60057253501145,82.60057253501145,82.81153756001731,None,0,,,,,sub-003,ses-control-stim-z-2,run-1,grey,2024-04-25_14h54.46.799,VDT,2023.2.3,120.16648346710772,2024-04-25 14h55.08.074003 +0200,
./images_beh/Sphere_Ref_BG-grey_stim-white.png,0,80,80,80,82.85805721196812,,,,,,,,,,82.81247206701664,82.85805721196812,82.85805721196812,83.59985733096255,83.59985733096255,83.78325918596238,None,0,,,,,sub-003,ses-control-stim-z-2,run-1,grey,2024-04-25_14h54.46.799,VDT,2023.2.3,120.16648346710772,2024-04-25 14h55.08.074003 +0200,
./images_beh/Sphere_Ref_BG-grey_stim-yellow.png,0,81,81,81,83.82774861098733,,,,,,,,,,83.7839836649946,83.84845246199984,83.84845246199984,84.61231782397954,84.59563573100604,84.7993567980011,['space'],0,0.37507135601481423,None,,,sub-003,ses-control-stim-z-2,run-1,grey,2024-04-25_14h54.46.799,VDT,2023.2.3,120.16648346710772,2024-04-25 14h55.08.074003 +0200,
./images_beh/Sphere_CCW-1.5_BG-grey_stim-white.png,0,82,82,82,84.84272084699478,,,,,,,,,,84.80019864498172,84.84844134497689,84.84844134497689,85.59900483599631,85.59206733398605,85.82678830600344,None,0,,,,,sub-003,ses-control-stim-z-2,run-1,grey,2024-04-25_14h54.46.799,VDT,2023.2.3,120.16648346710772,2024-04-25 14h55.08.074003 +0200,
./images_beh/Sphere_CW-1.5_BG-grey_stim-white.png,0,83,83,83,85.87272524199216,,,,,,,,,,85.82759671501117,85.87272524199216,85.87272524199216,86.60835826699622,86.6147298309952,86.84210761700524,None,0,,,,,sub-003,ses-control-stim-z-2,run-1,grey,2024-04-25_14h54.46.799,VDT,2023.2.3,120.16648346710772,2024-04-25 14h55.08.074003 +0200,
./images_beh/Sphere_CW-1.5_BG-grey_stim-yellow.png,0,84,84,84,86.88376920396695,,,,,,,,,,86.84327010397101,86.88376920396695,86.88376920396695,87.59849384997506,87.62455289799254,87.84501104900846,['space'],0,0.35591310501331463,None,,,sub-003,ses-control-stim-z-2,run-1,grey,2024-04-25_14h54.46.799,VDT,2023.2.3,120.16648346710772,2024-04-25 14h55.08.074003 +0200,
./images_beh/Sphere_CW-1.5_BG-grey_stim-white.png,0,85,85,85,87.89560985099524,,,,,,,,,,87.84599632397294,87.89560985099524,87.89560985099524,88.59846676100278,88.64064740698086,88.79753167397575,None,0,,,,,sub-003,ses-control-stim-z-2,run-1,grey,2024-04-25_14h54.46.799,VDT,2023.2.3,120.16648346710772,2024-04-25 14h55.08.074003 +0200,
./images_beh/Sphere_CW-1.5_BG-grey_stim-white.png,0,86,86,86,88.84286804596195,,,,,,,,,,88.79827656998532,88.85701464401791,88.85701464401791,89.597527327016,89.597527327016,89.7767734999652,None,0,,,,,sub-003,ses-control-stim-z-2,run-1,grey,2024-04-25_14h54.46.799,VDT,2023.2.3,120.16648346710772,2024-04-25 14h55.08.074003 +0200,
./images_beh/Sphere_CW-1.5_BG-grey_stim-white.png,0,87,87,87,89.82282405596925,,,,,,,,,,89.77750359097263,89.84617350099143,89.84617350099143,90.59735870099394,90.59002837497974,90.86221057601506,None,0,,,90.83971272897907,90.83971272897907,sub-003,ses-control-stim-z-2,run-1,grey,2024-04-25_14h54.46.799,VDT,2023.2.3,120.16648346710772,2024-04-25 14h55.08.074003 +0200,
./images_beh/Sphere_CCW-1.5_BG-grey_stim-white.png,0,88,88,88,90.90937117597787,,,,,,,,,,90.86296095600119,90.90937117597787,90.90937117597787,91.59738657297567,91.65612096397672,91.78967859497061,None,0,,,,,sub-003,ses-control-stim-z-2,run-1,grey,2024-04-25_14h54.46.799,VDT,2023.2.3,120.16648346710772,2024-04-25 14h55.08.074003 +0200,
./images_beh/Sphere_CW-1.5_BG-grey_stim-white.png,0,89,89,89,91.82807851798134,,,,,,,,,,91.79043323796941,91.84447259100853,91.84447259100853,92.59611888299696,92.58896680601174,92.80641184700653,None,0,,,,,sub-003,ses-control-stim-z-2,run-1,grey,2024-04-25_14h54.46.799,VDT,2023.2.3,120.16648346710772,2024-04-25 14h55.08.074003 +0200,
./images_beh/Sphere_CW-1.5_BG-grey_stim-white.png,0,90,90,90,92.85500358999707,,,,,,,,,,92.8071693709935,92.85500358999707,92.85500358999707,93.5961944499868,93.5961944499868,93.77965083997697,None,0,,,,,sub-003,ses-control-stim-z-2,run-1,grey,2024-04-25_14h54.46.799,VDT,2023.2.3,120.16648346710772,2024-04-25 14h55.08.074003 +0200,
./images_beh/Sphere_CW-1.5_BG-grey_stim-white.png,0,91,91,91,93.82925345998956,,,,,,,,,,93.78058820596198,93.84362842497649,93.84362842497649,94.60735701199155,94.59014145599212,94.82187446701573,None,0,,,,,sub-003,ses-control-stim-z-2,run-1,grey,2024-04-25_14h54.46.799,VDT,2023.2.3,120.16648346710772,2024-04-25 14h55.08.074003 +0200,
./images_beh/Sphere_CCW-1.5_BG-grey_stim-yellow.png,0,92,92,92,94.87055789801525,,,,,,,,,,94.82344079500763,94.87055789801525,94.87055789801525,95.6035907510086,95.6105890260078,95.78828442998929,['space'],0,0.38650165498256683,None,,,sub-003,ses-control-stim-z-2,run-1,grey,2024-04-25_14h54.46.799,VDT,2023.2.3,120.16648346710772,2024-04-25 14h55.08.074003 +0200,
./images_beh/Sphere_CW-1.5_BG-grey_stim-white.png,0,93,93,93,95.83458500396227,,,,,,,,,,95.78961535997223,95.85302559100091,95.85302559100091,96.60326561296824,96.59300558001269,96.8041324520018,None,0,,,,,sub-003,ses-control-stim-z-2,run-1,grey,2024-04-25_14h54.46.799,VDT,2023.2.3,120.16648346710772,2024-04-25 14h55.08.074003 +0200,
./images_beh/Sphere_CCW-1.5_BG-grey_stim-white.png,0,94,94,94,96.84830454696203,,,,,,,,,,96.80495309800608,96.853379452019,96.853379452019,97.60269810899626,97.59250200499082,97.85880351800006,None,0,,,97.85270563501399,97.85270563501399,sub-003,ses-control-stim-z-2,run-1,grey,2024-04-25_14h54.46.799,VDT,2023.2.3,120.16648346710772,2024-04-25 14h55.08.074003 +0200,
./images_beh/Sphere_CCW-1.5_BG-grey_stim-white.png,0,95,95,95,97.90787920600269,,,,,,,,,,97.85956162499497,97.90787920600269,97.90787920600269,98.60473535698839,98.65198957396206,98.83699616900412,None,0,,,,,sub-003,ses-control-stim-z-2,run-1,grey,2024-04-25_14h54.46.799,VDT,2023.2.3,120.16648346710772,2024-04-25 14h55.08.074003 +0200,
./images_beh/Sphere_Ref_BG-grey_stim-yellow.png,0,96,96,96,98.88405183400027,,,,,,,,,,98.83778163098032,98.88405183400027,98.88405183400027,99.60180394200142,99.6249179939623,99.79063006397337,['space'],0,0.42730159597704187,None,,,sub-003,ses-control-stim-z-2,run-1,grey,2024-04-25_14h54.46.799,VDT,2023.2.3,120.16648346710772,2024-04-25 14h55.08.074003 +0200,
./images_beh/Sphere_CCW-1.5_BG-grey_stim-white.png,0,97,97,97,99.82972579298075,,,,,,,,,,99.79130207200069,99.8514330869657,99.8514330869657,100.60114731197245,100.59059710497968,100.7763056519907,None,0,,,,,sub-003,ses-control-stim-z-2,run-1,grey,2024-04-25_14h54.46.799,VDT,2023.2.3,120.16648346710772,2024-04-25 14h55.08.074003 +0200,
./images_beh/Sphere_CCW-1.5_BG-grey_stim-white.png,0,98,98,98,100.82425528101157,,,,,,,,,,100.77704351599095,100.85131596098654,100.85131596098654,101.60066547896713,101.58985252096318,101.81850730901351,None,0,,,,,sub-003,ses-control-stim-z-2,run-1,grey,2024-04-25_14h54.46.799,VDT,2023.2.3,120.16648346710772,2024-04-25 14h55.08.074003 +0200,
./images_beh/Sphere_Ref_BG-grey_stim-yellow.png,0,99,99,99,101.86592545296298,,,,,,,,,,101.81942378397798,101.86592545296298,101.86592545296298,102.6003478539642,102.60710826300783,102.81807461200515,['space'],0,0.357622105977498,None,,,sub-003,ses-control-stim-z-2,run-1,grey,2024-04-25_14h54.46.799,VDT,2023.2.3,120.16648346710772,2024-04-25 14h55.08.074003 +0200,
./images_beh/Sphere_Ref_BG-grey_stim-white.png,0,100,100,100,102.86556909198407,,,,,,,,,,102.81914288800908,102.86556909198407,102.86556909198407,103.59983595297672,103.60665264201816,103.79008254100336,None,0,,,,,sub-003,ses-control-stim-z-2,run-1,grey,2024-04-25_14h54.46.799,VDT,2023.2.3,120.16648346710772,2024-04-25 14h55.08.074003 +0200,
./images_beh/Sphere_CCW-1.5_BG-grey_stim-white.png,0,101,101,101,103.83586854598252,,,,,,,,,,103.79081289697206,103.85546512296423,103.85546512296423,104.60638550797012,104.60638550797012,104.76584541698685,None,0,,,,,sub-003,ses-control-stim-z-2,run-1,grey,2024-04-25_14h54.46.799,VDT,2023.2.3,120.16648346710772,2024-04-25 14h55.08.074003 +0200,
./images_beh/Sphere_CCW-1.5_BG-grey_stim-white.png,0,102,102,102,104.80137735197786,,,,,,,,,,104.7663537299959,104.85543106897967,104.85543106897967,105.60578607599018,105.60578607599018,105.8067369289929,None,0,,,,,sub-003,ses-control-stim-z-2,run-1,grey,2024-04-25_14h54.46.799,VDT,2023.2.3,120.16648346710772,2024-04-25 14h55.08.074003 +0200,
./images_beh/Sphere_CW-1.5_BG-grey_stim-yellow.png,0,103,103,103,105.85709353897255,,,,,,,,,,105.80749144597212,105.85709353897255,105.85709353897255,106.60367490601493,106.60367490601493,106.80534764297772,['space'],0,0.37585207901429385,None,,,sub-003,ses-control-stim-z-2,run-1,grey,2024-04-25_14h54.46.799,VDT,2023.2.3,120.16648346710772,2024-04-25 14h55.08.074003 +0200,
./images_beh/Sphere_CW-1.5_BG-grey_stim-white.png,0,104,104,104,106.85254480596632,,,,,,,,,,106.80652504897444,106.85254480596632,106.85254480596632,107.61435532796895,107.6002980179619,107.80539069697261,None,0,,,,,sub-003,ses-control-stim-z-2,run-1,grey,2024-04-25_14h54.46.799,VDT,2023.2.3,120.16648346710772,2024-04-25 14h55.08.074003 +0200,
./images_beh/Sphere_CW-1.5_BG-grey_stim-white.png,0,105,105,105,107.85696875996655,,,,,,,,,,107.80631078599254,107.86387548397761,107.86387548397761,108.60422104096506,108.60422104096506,108.8050790259731,None,0,,,,,sub-003,ses-control-stim-z-2,run-1,grey,2024-04-25_14h54.46.799,VDT,2023.2.3,120.16648346710772,2024-04-25 14h55.08.074003 +0200,
./images_beh/Sphere_Ref_BG-grey_stim-white.png,0,106,106,106,108.85179242596496,,,,,,,,,,108.80612810497405,108.86348739697132,108.86348739697132,109.60425892600324,109.60425892600324,109.85010348196374,None,0,,,109.8492907229811,,sub-003,ses-control-stim-z-2,run-1,grey,2024-04-25_14h54.46.799,VDT,2023.2.3,120.16648346710772,2024-04-25 14h55.08.074003 +0200,
./images_beh/Sphere_CW-1.5_BG-grey_stim-white.png,0,107,107,107,109.8984580039978,,,,,,,,,,109.8508319510147,109.8984580039978,109.8984580039978,110.60400198301068,110.64586627599783,110.80338724597823,None,0,,,,,sub-003,ses-control-stim-z-2,run-1,grey,2024-04-25_14h54.46.799,VDT,2023.2.3,120.16648346710772,2024-04-25 14h55.08.074003 +0200,
./images_beh/Sphere_CW-1.5_BG-grey_stim-white.png,0,108,108,108,110.84607823897386,,,,,,,,,,110.80397329200059,110.85152517497772,110.85152517497772,111.60245902999304,111.59567445499124,111.81921780301491,None,0,,,,,sub-003,ses-control-stim-z-2,run-1,grey,2024-04-25_14h54.46.799,VDT,2023.2.3,120.16648346710772,2024-04-25 14h55.08.074003 +0200,
./images_beh/Sphere_CCW-1.5_BG-grey_stim-white.png,0,109,109,109,111.86469105101423,,,,,,,,,,111.81991125800414,111.86469105101423,111.86469105101423,112.60234397498425,112.61177627200959,112.83553516597021,None,0,,,,,sub-003,ses-control-stim-z-2,run-1,grey,2024-04-25_14h54.46.799,VDT,2023.2.3,120.16648346710772,2024-04-25 14h55.08.074003 +0200,
./images_beh/Sphere_CW-1.5_BG-grey_stim-white.png,0,110,110,110,112.88086847600061,,,,,,,,,,112.83622773201205,112.88086847600061,112.88086847600061,113.60293546196772,113.62801087001571,113.76292915799422,None,0,,,,,sub-003,ses-control-stim-z-2,run-1,grey,2024-04-25_14h54.46.799,VDT,2023.2.3,120.16648346710772,2024-04-25 14h55.08.074003 +0200,
./images_beh/Sphere_CCW-1.5_BG-grey_stim-white.png,0,111,111,111,113.8095712659997,,,,,,,,,,113.76372671301942,113.85107758000959,113.85107758000959,114.60086828400381,114.59396802197443,114.79472716996679,None,0,,,,,sub-003,ses-control-stim-z-2,run-1,grey,2024-04-25_14h54.46.799,VDT,2023.2.3,120.16648346710772,2024-04-25 14h55.08.074003 +0200,
./images_beh/Sphere_Ref_BG-grey_stim-yellow.png,0,112,112,112,114.83728904597228,,,,,,,,,,114.79569225001615,114.84906243701698,114.84906243701698,115.59811757697025,115.59811757697025,115.78305624000495,['space'],0,0.48048874305095524,None,,,sub-003,ses-control-stim-z-2,run-1,grey,2024-04-25_14h54.46.799,VDT,2023.2.3,120.16648346710772,2024-04-25 14h55.08.074003 +0200,
./images_beh/Sphere_CCW-1.5_BG-grey_stim-white.png,0,113,113,113,115.82360005500959,,,,,,,,,,115.78387048700824,115.84800353698665,115.84800353698665,116.59941532899393,116.59299923898652,116.77723522798624,None,0,,,,,sub-003,ses-control-stim-z-2,run-1,grey,2024-04-25_14h54.46.799,VDT,2023.2.3,120.16648346710772,2024-04-25 14h55.08.074003 +0200,
./images_beh/Sphere_Ref_BG-grey_stim-white.png,0,114,114,114,116.82453436899232,,,,,,,,,,116.7782878279686,116.84813860501163,116.84813860501163,117.60935210401658,117.59492302598665,117.78240638098214,None,0,,,,,sub-003,ses-control-stim-z-2,run-1,grey,2024-04-25_14h54.46.799,VDT,2023.2.3,120.16648346710772,2024-04-25 14h55.08.074003 +0200,
./images_beh/Sphere_Ref_BG-grey_stim-yellow.png,0,115,115,115,117.82558375399094,,,,,,,,,,117.78299938701093,117.84776981401956,117.84776981401956,118.5990154640167,118.59193270996911,118.78246003296226,['space'],0,0.46364134701434523,None,,,sub-003,ses-control-stim-z-2,run-1,grey,2024-04-25_14h54.46.799,VDT,2023.2.3,120.16648346710772,2024-04-25 14h55.08.074003 +0200,
./images_beh/Sphere_CCW-1.5_BG-grey_stim-white.png,0,116,116,116,118.82606918597594,,,,,,,,,,118.7832380280015,118.84716451901477,118.84716451901477,119.59791929397034,119.59154524299083,119.84225164796226,None,0,,,119.84139303700067,119.84139303700067,sub-003,ses-control-stim-z-2,run-1,grey,2024-04-25_14h54.46.799,VDT,2023.2.3,120.16648346710772,2024-04-25 14h55.08.074003 +0200,
./images_beh/Sphere_CCW-1.5_BG-grey_stim-white.png,0,117,117,117,119.88580881600501,,,,,,,,,,119.84307703701779,119.88580881600501,119.88580881600501,120.61045808001654,120.64403538301121,120.7756501819822,None,0,,,,,sub-003,ses-control-stim-z-2,run-1,grey,2024-04-25_14h54.46.799,VDT,2023.2.3,120.16648346710772,2024-04-25 14h55.08.074003 +0200,
./images_beh/Sphere_CW-1.5_BG-grey_stim-white.png,0,118,118,118,120.82048206496984,,,,,,,,,,120.7764437639853,120.84722463798244,120.84722463798244,121.6074867079733,121.59281625098083,121.8915320369997,None,0,,,121.85991855396423,121.84328255697619,sub-003,ses-control-stim-z-2,run-1,grey,2024-04-25_14h54.46.799,VDT,2023.2.3,120.16648346710772,2024-04-25 14h55.08.074003 +0200,
./images_beh/Sphere_CW-1.5_BG-grey_stim-white.png,0,119,119,119,121.93742540996755,,,,,,,,,,121.892308562994,121.93742540996755,121.93742540996755,122.60991368396208,122.6924571020063,122.81110174197238,None,0,,,,,sub-003,ses-control-stim-z-2,run-1,grey,2024-04-25_14h54.46.799,VDT,2023.2.3,120.16648346710772,2024-04-25 14h55.08.074003 +0200,
./images_beh/Sphere_CCW-1.5_BG-grey_stim-yellow.png,0,120,120,120,122.85874256998068,,,,,,,,,,122.81183633999899,122.85874256998068,122.85874256998068,123.5976566579775,123.606127105013,123.81355912599247,['space'],0,0.40426740696420893,None,,,sub-003,ses-control-stim-z-2,run-1,grey,2024-04-25_14h54.46.799,VDT,2023.2.3,120.16648346710772,2024-04-25 14h55.08.074003 +0200,
./images_beh/Sphere_CCW-1.5_BG-grey_stim-white.png,0,121,121,121,123.86190004897071,,,,,,,,,,123.81448393000755,123.86190004897071,123.86190004897071,124.59747778397286,124.60595114197349,124.76213438500417,None,0,,,,,sub-003,ses-control-stim-z-2,run-1,grey,2024-04-25_14h54.46.799,VDT,2023.2.3,120.16648346710772,2024-04-25 14h55.08.074003 +0200,
./images_beh/Sphere_CW-1.5_BG-grey_stim-white.png,0,122,122,122,124.80642820301,,,,,,,,,,124.7628076300025,124.84508028399432,124.84508028399432,125.59511232300429,125.58863419498084,125.82548051798949,None,0,,,,,sub-003,ses-control-stim-z-2,run-1,grey,2024-04-25_14h54.46.799,VDT,2023.2.3,120.16648346710772,2024-04-25 14h55.08.074003 +0200,
./images_beh/Sphere_CW-1.5_BG-grey_stim-yellow.png,0,123,123,123,125.8736898949719,,,,,,,,,,125.82622707099654,125.8736898949719,125.8736898949719,126.6049363730126,126.62107112701051,126.77234456897713,['space'],0,0.4324960650410503,None,,,sub-003,ses-control-stim-z-2,run-1,grey,2024-04-25_14h54.46.799,VDT,2023.2.3,120.16648346710772,2024-04-25 14h55.08.074003 +0200,
./images_beh/Sphere_Ref_BG-grey_stim-white.png,0,124,124,124,126.82035390799865,,,,,,,,,,126.77380948001519,126.854209676967,126.854209676967,127.60414964397205,127.59308695798973,127.79481522197602,None,0,,,,,sub-003,ses-control-stim-z-2,run-1,grey,2024-04-25_14h54.46.799,VDT,2023.2.3,120.16648346710772,2024-04-25 14h55.08.074003 +0200,
./images_beh/Sphere_CW-1.5_BG-grey_stim-white.png,0,125,125,125,127.8365452059661,,,,,,,,,,127.79570641601458,127.85385713196592,127.85385713196592,128.60389684996335,128.59353955101687,128.7950320210075,None,0,,,,,sub-003,ses-control-stim-z-2,run-1,grey,2024-04-25_14h54.46.799,VDT,2023.2.3,120.16648346710772,2024-04-25 14h55.08.074003 +0200,
./images_beh/Sphere_Ref_BG-grey_stim-white.png,0,126,126,126,128.83807609201176,,,,,,,,,,128.79568804701557,128.85376010200707,128.85376010200707,129.60358411900233,129.60358411900233,129.76138509600423,None,0,,,,,sub-003,ses-control-stim-z-2,run-1,grey,2024-04-25_14h54.46.799,VDT,2023.2.3,120.16648346710772,2024-04-25 14h55.08.074003 +0200,
./images_beh/Sphere_CW-1.5_BG-grey_stim-white.png,0,127,127,127,129.80841484398115,,,,,,,,,,129.7621112120105,129.8563277249923,129.8563277249923,130.605355785985,130.605355785985,130.8401332150097,None,0,,,,,sub-003,ses-control-stim-z-2,run-1,grey,2024-04-25_14h54.46.799,VDT,2023.2.3,120.16648346710772,2024-04-25 14h55.08.074003 +0200,
./images_beh/Sphere_CCW-1.5_BG-grey_stim-white.png,0,128,128,128,130.88986959698377,,,,,,,,,,130.84123232297134,130.88986959698377,130.88986959698377,131.60202186898096,131.63541332696332,131.8083678879775,None,0,,,,,sub-003,ses-control-stim-z-2,run-1,grey,2024-04-25_14h54.46.799,VDT,2023.2.3,120.16648346710772,2024-04-25 14h55.08.074003 +0200,
./images_beh/Sphere_CW-1.5_BG-grey_stim-white.png,0,129,129,129,131.85070983698824,,,,,,,,,,131.80886624701088,131.85070983698824,131.85070983698824,132.60182598698884,132.5905525739654,132.78599976596888,None,0,,,,,sub-003,ses-control-stim-z-2,run-1,grey,2024-04-25_14h54.46.799,VDT,2023.2.3,120.16648346710772,2024-04-25 14h55.08.074003 +0200,
./images_beh/Sphere_CCW-1.5_BG-grey_stim-white.png,0,130,130,130,132.8291620480013,,,,,,,,,,132.78674216900254,132.85141186101828,132.85141186101828,133.62090068298858,133.6044223550125,133.8546574789798,None,0,,,,133.8538400940015,sub-003,ses-control-stim-z-2,run-1,grey,2024-04-25_14h54.46.799,VDT,2023.2.3,120.16648346710772,2024-04-25 14h55.08.074003 +0200,
./images_beh/Sphere_CW-1.5_BG-grey_stim-yellow.png,0,131,131,131,133.90299290796975,,,,,,,,,,133.85555616399506,133.90299290796975,133.90299290796975,134.60053901496576,134.65054374496685,134.79221073398367,['space'],0,0.40887086099246517,None,,,sub-003,ses-control-stim-z-2,run-1,grey,2024-04-25_14h54.46.799,VDT,2023.2.3,120.16648346710772,2024-04-25 14h55.08.074003 +0200,
./images_beh/Sphere_CW-1.5_BG-grey_stim-white.png,0,132,132,132,134.84061146498425,,,,,,,,,,134.79320006701164,134.85070692701265,134.85070692701265,135.60265893198084,135.58962864999194,135.81753956200555,None,0,,,,,sub-003,ses-control-stim-z-2,run-1,grey,2024-04-25_14h54.46.799,VDT,2023.2.3,120.16648346710772,2024-04-25 14h55.08.074003 +0200,
./images_beh/Sphere_CCW-1.5_BG-grey_stim-white.png,0,133,133,133,135.86095512699103,,,,,,,,,,135.81815065600676,135.86095512699103,135.86095512699103,136.6186126539833,136.6186126539833,136.7869624120067,None,0,,,,,sub-003,ses-control-stim-z-2,run-1,grey,2024-04-25_14h54.46.799,VDT,2023.2.3,120.16648346710772,2024-04-25 14h55.08.074003 +0200,
./images_beh/Sphere_Ref_BG-grey_stim-yellow.png,0,134,134,134,136.83365872799186,,,,,,,,,,136.78771552699618,136.85000212397426,136.85000212397426,137.6059229639941,137.59894849400735,137.7833763830131,['space'],0,0.39020303200231865,None,,,sub-003,ses-control-stim-z-2,run-1,grey,2024-04-25_14h54.46.799,VDT,2023.2.3,120.16648346710772,2024-04-25 14h55.08.074003 +0200,
./images_beh/Sphere_Ref_BG-grey_stim-white.png,0,135,135,135,137.8311270539998,,,,,,,,,,137.78477354801726,137.85428807296557,137.85428807296557,138.60117068100953,138.60117068100953,138.78926680696895,None,0,,,,,sub-003,ses-control-stim-z-2,run-1,grey,2024-04-25_14h54.46.799,VDT,2023.2.3,120.16648346710772,2024-04-25 14h55.08.074003 +0200,
./images_beh/Sphere_CW-1.5_BG-grey_stim-white.png,0,136,136,136,138.83341932698386,,,,,,,,,,138.78992826200556,138.8544478279655,138.8544478279655,139.60549098899355,139.60549098899355,139.8222666470101,None,0,,,,,sub-003,ses-control-stim-z-2,run-1,grey,2024-04-25_14h54.46.799,VDT,2023.2.3,120.16648346710772,2024-04-25 14h55.08.074003 +0200,
./images_beh/Sphere_CCW-1.5_BG-grey_stim-white.png,0,137,137,137,139.8651188329677,,,,,,,,,,139.82288340997184,139.8651188329677,139.8651188329677,140.6146617140039,140.6146617140039,140.85105146397837,None,0,,,,,sub-003,ses-control-stim-z-2,run-1,grey,2024-04-25_14h54.46.799,VDT,2023.2.3,120.16648346710772,2024-04-25 14h55.08.074003 +0200,
./images_beh/Sphere_Ref_BG-grey_stim-yellow.png,0,138,138,138,140.89952862699283,,,,,,,,,,140.8517832920188,140.89952862699283,140.89952862699283,141.6164357449743,141.64714959799312,141.78160949301673,['space'],0,0.3657365589751862,None,,,sub-003,ses-control-stim-z-2,run-1,grey,2024-04-25_14h54.46.799,VDT,2023.2.3,120.16648346710772,2024-04-25 14h55.08.074003 +0200,
./images_beh/Sphere_CW-1.5_BG-grey_stim-white.png,0,139,139,139,141.83080791000975,,,,,,,,,,141.78305412398186,141.85261351597728,141.85261351597728,142.60327293601586,142.59663319797255,142.79760738101322,None,0,,,,,sub-003,ses-control-stim-z-2,run-1,grey,2024-04-25_14h54.46.799,VDT,2023.2.3,120.16648346710772,2024-04-25 14h55.08.074003 +0200,
./images_beh/Sphere_CCW-1.5_BG-grey_stim-white.png,0,140,140,140,142.84672346996376,,,,,,,,,,142.79880954697728,142.85211678000633,142.85211678000633,143.60276231501484,143.60276231501484,143.78070127998944,None,0,,,,,sub-003,ses-control-stim-z-2,run-1,grey,2024-04-25_14h54.46.799,VDT,2023.2.3,120.16648346710772,2024-04-25 14h55.08.074003 +0200,
./images_beh/Sphere_CCW-1.5_BG-grey_stim-yellow.png,0,141,141,141,143.82947035797406,,,,,,,,,,143.78293645300437,143.86259167297976,143.86259167297976,144.61223624798004,144.61223624798004,144.796333211998,['space'],0,0.38545278599485755,None,,,sub-003,ses-control-stim-z-2,run-1,grey,2024-04-25_14h54.46.799,VDT,2023.2.3,120.16648346710772,2024-04-25 14h55.08.074003 +0200,
./images_beh/Sphere_CCW-1.5_BG-grey_stim-white.png,0,142,142,142,144.84377133200178,,,,,,,,,,144.79753852100112,144.84874708601274,144.84874708601274,145.60180367098656,145.59514738997677,145.81877646199428,None,0,,,,,sub-003,ses-control-stim-z-2,run-1,grey,2024-04-25_14h54.46.799,VDT,2023.2.3,120.16648346710772,2024-04-25 14h55.08.074003 +0200,
./images_beh/Sphere_CW-1.5_BG-grey_stim-white.png,0,143,143,143,145.86561704199994,,,,,,,,,,145.81959458900383,145.86561704199994,145.86561704199994,146.60203824401833,146.61093458696268,146.82893060799688,None,0,,,,,sub-003,ses-control-stim-z-2,run-1,grey,2024-04-25_14h54.46.799,VDT,2023.2.3,120.16648346710772,2024-04-25 14h55.08.074003 +0200,
./images_beh/Sphere_CCW-1.5_BG-grey_stim-white.png,0,144,144,144,146.87813712400384,,,,,,,,,,146.8297893650015,146.87813712400384,146.87813712400384,147.6015440779738,147.617147647019,147.8184333909885,None,0,,,,,sub-003,ses-control-stim-z-2,run-1,grey,2024-04-25_14h54.46.799,VDT,2023.2.3,120.16648346710772,2024-04-25 14h55.08.074003 +0200,
./images_beh/Sphere_CCW-1.5_BG-grey_stim-white.png,0,145,145,145,147.86811694997596,,,,,,,,,,147.8193617410143,147.86811694997596,147.86811694997596,148.6024571309681,148.60993711801711,148.77745999000035,None,0,,,,,sub-003,ses-control-stim-z-2,run-1,grey,2024-04-25_14h54.46.799,VDT,2023.2.3,120.16648346710772,2024-04-25 14h55.08.074003 +0200,
./images_beh/Sphere_Ref_BG-grey_stim-yellow.png,0,146,146,146,148.8240375929745,,,,,,,,,,148.77888943901053,148.84880910499487,148.84880910499487,149.59896452497924,149.5926106729894,149.78159390599467,['space'],0,0.39818079699762166,None,,,sub-003,ses-control-stim-z-2,run-1,grey,2024-04-25_14h54.46.799,VDT,2023.2.3,120.16648346710772,2024-04-25 14h55.08.074003 +0200,
./images_beh/Sphere_CW-1.5_BG-grey_stim-white.png,0,147,147,147,149.81722261401592,,,,,,,,,,149.78204526397167,149.84853180701612,149.84853180701612,150.59938055899693,150.59239835001063,150.79944053298095,None,0,,,,,sub-003,ses-control-stim-z-2,run-1,grey,2024-04-25_14h54.46.799,VDT,2023.2.3,120.16648346710772,2024-04-25 14h55.08.074003 +0200,
./images_beh/Sphere_CW-1.5_BG-grey_stim-white.png,0,148,148,148,150.8412032739725,,,,,,,,,,150.80003874300746,150.84666662401287,150.84666662401287,151.59721739497036,151.59154630999546,151.79938242700882,None,0,,,,,sub-003,ses-control-stim-z-2,run-1,grey,2024-04-25_14h54.46.799,VDT,2023.2.3,120.16648346710772,2024-04-25 14h55.08.074003 +0200,
./images_beh/Sphere_CCW-1.5_BG-grey_stim-yellow.png,0,149,149,149,151.84649731597165,,,,,,,,,,151.80011196201667,151.85814715496963,151.85814715496963,152.59776286501437,152.59776286501437,152.80877905501984,['space'],0,0.5094957879628055,None,,,sub-003,ses-control-stim-z-2,run-1,grey,2024-04-25_14h54.46.799,VDT,2023.2.3,120.16648346710772,2024-04-25 14h55.08.074003 +0200,
./images_beh/Sphere_CCW-1.5_BG-grey_stim-white.png,0,150,150,150,152.85494691098575,,,,,,,,,,152.80975058901822,152.85494691098575,152.85494691098575,153.59676756197587,153.59676756197587,153.7754275019979,None,0,,,,,sub-003,ses-control-stim-z-2,run-1,grey,2024-04-25_14h54.46.799,VDT,2023.2.3,120.16648346710772,2024-04-25 14h55.08.074003 +0200,
./images_beh/Sphere_CW-1.5_BG-grey_stim-white.png,0,151,151,151,153.8227349499939,,,,,,,,,,153.7766866160091,153.8457217629766,153.8457217629766,154.59792903997004,154.59792903997004,154.8273644039873,None,0,,,,,sub-003,ses-control-stim-z-2,run-1,grey,2024-04-25_14h54.46.799,VDT,2023.2.3,120.16648346710772,2024-04-25 14h55.08.074003 +0200,
./images_beh/Sphere_Ref_BG-grey_stim-white.png,0,152,152,152,154.8758340079803,,,,,,,,,,154.82809407496825,154.8758340079803,154.8758340079803,155.5985251959646,155.62379941699328,155.82689545099856,None,0,,,,,sub-003,ses-control-stim-z-2,run-1,grey,2024-04-25_14h54.46.799,VDT,2023.2.3,120.16648346710772,2024-04-25 14h55.08.074003 +0200,
./images_beh/Sphere_CCW-1.5_BG-grey_stim-white.png,0,153,153,153,155.87466590298573,,,,,,,,,,155.82770721899578,155.87466590298573,155.87466590298573,156.59754229697865,156.62285107496427,156.77420176099986,None,0,,,,,sub-003,ses-control-stim-z-2,run-1,grey,2024-04-25_14h54.46.799,VDT,2023.2.3,120.16648346710772,2024-04-25 14h55.08.074003 +0200,
./images_beh/Sphere_CW-1.5_BG-grey_stim-yellow.png,0,154,154,154,156.82222722901497,,,,,,,,,,156.77500914398115,156.84525319200475,156.84525319200475,157.595446702966,157.58891756401863,157.797220922017,['space'],0,0.370231272012461,None,,,sub-003,ses-control-stim-z-2,run-1,grey,2024-04-25_14h54.46.799,VDT,2023.2.3,120.16648346710772,2024-04-25 14h55.08.074003 +0200,
./images_beh/Sphere_Ref_BG-grey_stim-white.png,0,155,155,155,157.8455855679931,,,,,,,,,,157.79819937300636,157.8551400419674,157.8551400419674,158.60809482098557,158.60809482098557,158.79534253198653,None,0,,,,,sub-003,ses-control-stim-z-2,run-1,grey,2024-04-25_14h54.46.799,VDT,2023.2.3,120.16648346710772,2024-04-25 14h55.08.074003 +0200,
./images_beh/Sphere_CCW-1.5_BG-grey_stim-white.png,0,156,156,156,158.83903213700978,,,,,,,,,,158.7959327760036,158.84430647996487,158.84430647996487,159.59592625801452,159.58808303700062,159.77461118396604,None,0,,,,,sub-003,ses-control-stim-z-2,run-1,grey,2024-04-25_14h54.46.799,VDT,2023.2.3,120.16648346710772,2024-04-25 14h55.08.074003 +0200,
./images_beh/Sphere_CCW-1.5_BG-grey_stim-white.png,0,157,157,157,159.82062021101592,,,,,,,,,,159.77539972501108,159.84446824598126,159.84446824598126,160.60413648100803,160.58713912800886,160.838904283999,None,0,,,,160.8373396070092,sub-003,ses-control-stim-z-2,run-1,grey,2024-04-25_14h54.46.799,VDT,2023.2.3,120.16648346710772,2024-04-25 14h55.08.074003 +0200,
./images_beh/Sphere_CW-1.5_BG-grey_stim-white.png,0,158,158,158,160.88594806398032,,,,,,,,,,160.83965337398695,160.88594806398032,160.88594806398032,161.60623781901086,161.62773995799944,161.87145680200774,None,0,,,161.85642387898406,,sub-003,ses-control-stim-z-2,run-1,grey,2024-04-25_14h54.46.799,VDT,2023.2.3,120.16648346710772,2024-04-25 14h55.08.074003 +0200,
./images_beh/Sphere_Ref_BG-grey_stim-yellow.png,0,159,159,159,161.9177890099818,,,,,,,,,,161.8724185199826,161.9177890099818,161.9177890099818,162.60357897297945,162.65989360801177,162.82824840099784,['space'],0,0.4092166069895029,None,,,sub-003,ses-control-stim-z-2,run-1,grey,2024-04-25_14h54.46.799,VDT,2023.2.3,120.16648346710772,2024-04-25 14h55.08.074003 +0200,
./images_beh/Sphere_CW-1.5_BG-grey_stim-white.png,0,160,160,160,162.87453618401196,,,,,,,,,,162.82922071497887,162.87453618401196,162.87453618401196,163.60251060698647,163.61904356000014,163.82020128401928,None,0,,,,,sub-003,ses-control-stim-z-2,run-1,grey,2024-04-25_14h54.46.799,VDT,2023.2.3,120.16648346710772,2024-04-25 14h55.08.074003 +0200,
./images_beh/Sphere_CW-1.5_BG-grey_stim-white.png,0,161,161,161,163.86968956998317,,,,,,,,,,163.82150542800082,163.86968956998317,163.86968956998317,164.60219324898208,164.60958708100952,164.80271998501848,None,0,,,,,sub-003,ses-control-stim-z-2,run-1,grey,2024-04-25_14h54.46.799,VDT,2023.2.3,120.16648346710772,2024-04-25 14h55.08.074003 +0200,
./images_beh/Sphere_CW-1.5_BG-grey_stim-white.png,0,162,162,162,164.8498485069722,,,,,,,,,,164.80381900799694,164.85604313097429,164.85604313097429,165.6016202439787,165.60862446099054,165.77237694198266,None,0,,,,,sub-003,ses-control-stim-z-2,run-1,grey,2024-04-25_14h54.46.799,VDT,2023.2.3,120.16648346710772,2024-04-25 14h55.08.074003 +0200,
./images_beh/Sphere_CCW-1.5_BG-grey_stim-white.png,0,163,163,163,165.81913121498656,,,,,,,,,,165.7731085609994,165.85162019199925,165.85162019199925,166.60809825797332,166.60096454096492,166.81894806097262,None,0,,,,,sub-003,ses-control-stim-z-2,run-1,grey,2024-04-25_14h54.46.799,VDT,2023.2.3,120.16648346710772,2024-04-25 14h55.08.074003 +0200,
./images_beh/Sphere_CW-1.5_BG-grey_stim-white.png,0,164,164,164,166.86897998099448,,,,,,,,,,166.8199088589754,166.86897998099448,166.86897998099448,167.60077106999233,167.61684464500286,167.78701636201004,None,0,,,,,sub-003,ses-control-stim-z-2,run-1,grey,2024-04-25_14h54.46.799,VDT,2023.2.3,120.16648346710772,2024-04-25 14h55.08.074003 +0200,
./images_beh/Sphere_CW-1.5_BG-grey_stim-yellow.png,0,165,165,165,167.83281038998393,,,,,,,,,,167.78775834600674,167.85631460201694,167.85631460201694,168.59941895399243,168.59941895399243,168.76756982301595,['space'],0,0.4080676260055043,None,,,sub-003,ses-control-stim-z-2,run-1,grey,2024-04-25_14h54.46.799,VDT,2023.2.3,120.16648346710772,2024-04-25 14h55.08.074003 +0200,
./images_beh/Sphere_CW-1.5_BG-grey_stim-white.png,0,166,166,166,168.81114885397255,,,,,,,,,,168.7683536009863,168.8499967890093,168.8499967890093,169.60735994001152,169.59972763300175,169.8341915999772,None,0,,,,,sub-003,ses-control-stim-z-2,run-1,grey,2024-04-25_14h54.46.799,VDT,2023.2.3,120.16648346710772,2024-04-25 14h55.08.074003 +0200,
./images_beh/Sphere_CCW-1.5_BG-grey_stim-white.png,0,167,167,167,169.8813728870009,,,,,,,,,,169.83495412400225,169.8813728870009,169.8813728870009,170.60117128200363,170.62264893000247,170.8169657170074,None,0,,,,,sub-003,ses-control-stim-z-2,run-1,grey,2024-04-25_14h54.46.799,VDT,2023.2.3,120.16648346710772,2024-04-25 14h55.08.074003 +0200,
./images_beh/Sphere_Ref_BG-grey_stim-yellow.png,0,168,168,168,170.86598850996234,,,,,,,,,,170.81787701998837,170.86598850996234,170.86598850996234,171.6180570430006,171.6180570430006,171.77355831698515,['space'],0,0.5894573230179958,None,,,sub-003,ses-control-stim-z-2,run-1,grey,2024-04-25_14h54.46.799,VDT,2023.2.3,120.16648346710772,2024-04-25 14h55.08.074003 +0200,
./images_beh/Sphere_CCW-1.5_BG-grey_stim-white.png,0,169,169,169,171.81624896801077,,,,,,,,,,171.77433011698304,171.85557609400712,171.85557609400712,172.5981505109812,172.5981505109812,172.79896528698737,None,0,,,,,sub-003,ses-control-stim-z-2,run-1,grey,2024-04-25_14h54.46.799,VDT,2023.2.3,120.16648346710772,2024-04-25 14h55.08.074003 +0200,
./images_beh/Sphere_CW-1.5_BG-grey_stim-white.png,0,170,170,170,172.84746357199037,,,,,,,,,,172.79988954396686,172.8525228149956,172.8525228149956,173.5972167259897,173.5972167259897,173.83218607696472,None,0,,,,,sub-003,ses-control-stim-z-2,run-1,grey,2024-04-25_14h54.46.799,VDT,2023.2.3,120.16648346710772,2024-04-25 14h55.08.074003 +0200,
./images_beh/Sphere_CCW-1.5_BG-grey_stim-white.png,0,171,171,171,173.87959330301965,,,,,,,,,,173.83294717699755,173.87959330301965,173.87959330301965,174.60413571097888,174.6208091879962,174.81488261697814,None,0,,,,,sub-003,ses-control-stim-z-2,run-1,grey,2024-04-25_14h54.46.799,VDT,2023.2.3,120.16648346710772,2024-04-25 14h55.08.074003 +0200,
./images_beh/Sphere_Ref_BG-grey_stim-white.png,0,172,172,172,174.86396308097756,,,,,,,,,,174.81581524701323,174.86396308097756,174.86396308097756,175.60382702300558,175.60382702300558,175.8501170820091,None,0,,,,,sub-003,ses-control-stim-z-2,run-1,grey,2024-04-25_14h54.46.799,VDT,2023.2.3,120.16648346710772,2024-04-25 14h55.08.074003 +0200,
./images_beh/Sphere_CCW-1.5_BG-grey_stim-yellow.png,0,173,173,173,175.89849641401088,,,,,,,,,,175.85086001700256,175.89849641401088,175.89849641401088,176.603720411018,176.6455966400099,176.82040362199768,['space'],0,0.43684913899051026,None,,,sub-003,ses-control-stim-z-2,run-1,grey,2024-04-25_14h54.46.799,VDT,2023.2.3,120.16648346710772,2024-04-25 14h55.08.074003 +0200,
./images_beh/Sphere_CW-1.5_BG-grey_stim-white.png,0,174,174,174,176.87005673901876,,,,,,,,,,176.82141149800736,176.87005673901876,176.87005673901876,177.60332530702,177.6118512940011,177.8199129080167,None,0,,,,,sub-003,ses-control-stim-z-2,run-1,grey,2024-04-25_14h54.46.799,VDT,2023.2.3,120.16648346710772,2024-04-25 14h55.08.074003 +0200,
./images_beh/Sphere_CCW-1.5_BG-grey_stim-white.png,0,175,175,175,177.86803166300524,,,,,,,,,,177.82063584099524,177.86803166300524,177.86803166300524,178.6019632879761,178.61172016197816,178.81218875397462,None,0,,,,,sub-003,ses-control-stim-z-2,run-1,grey,2024-04-25_14h54.46.799,VDT,2023.2.3,120.16648346710772,2024-04-25 14h55.08.074003 +0200,
./images_beh/Sphere_Ref_BG-grey_stim-yellow.png,0,176,176,176,178.85635045199888,,,,,,,,,,178.81316023599356,178.85635045199888,178.85635045199888,179.60116542701144,179.60116542701144,179.86177754600067,['space'],0,0.37577043497003615,None,179.84444726799848,179.84999061498092,sub-003,ses-control-stim-z-2,run-1,grey,2024-04-25_14h54.46.799,VDT,2023.2.3,120.16648346710772,2024-04-25 14h55.08.074003 +0200,
./images_beh/Sphere_CW-1.5_BG-grey_stim-white.png,0,177,177,177,179.9095080010011,,,,,,,,,,179.86326227599056,179.9095080010011,179.9095080010011,180.60102048097178,180.65068157296628,180.81179430201882,None,0,,,,,sub-003,ses-control-stim-z-2,run-1,grey,2024-04-25_14h54.46.799,VDT,2023.2.3,120.16648346710772,2024-04-25 14h55.08.074003 +0200,
./images_beh/Sphere_Ref_BG-grey_stim-white.png,0,178,178,178,180.85987342201406,,,,,,,,,,180.81253752397606,180.85987342201406,180.85987342201406,181.59975823399145,181.59975823399145,181.81638125999598,None,0,,,,,sub-003,ses-control-stim-z-2,run-1,grey,2024-04-25_14h54.46.799,VDT,2023.2.3,120.16648346710772,2024-04-25 14h55.08.074003 +0200,
./images_beh/Sphere_CCW-1.5_BG-grey_stim-white.png,0,179,179,179,181.85853636998218,,,,,,,,,,181.81699270900572,181.85853636998218,181.85853636998218,182.59981108101783,182.59981108101783,182.7964347450179,None,0,,,,,sub-003,ses-control-stim-z-2,run-1,grey,2024-04-25_14h54.46.799,VDT,2023.2.3,120.16648346710772,2024-04-25 14h55.08.074003 +0200,
./images_beh/Sphere_CCW-1.5_BG-grey_stim-white.png,0,180,180,180,182.84206844400615,,,,,,,,,,182.7971857530065,182.84762710798532,182.84762710798532,183.59893738798564,183.59229963301914,183.80969313700916,None,0,,,,,sub-003,ses-control-stim-z-2,run-1,grey,2024-04-25_14h54.46.799,VDT,2023.2.3,120.16648346710772,2024-04-25 14h55.08.074003 +0200,
./images_beh/Sphere_CCW-1.5_BG-grey_stim-white.png,0,181,181,181,183.85277763998602,,,,,,,,,,183.8106028320035,183.85277763998602,183.85277763998602,184.59776979201706,184.59776979201706,184.82608652097406,None,0,,,,,sub-003,ses-control-stim-z-2,run-1,grey,2024-04-25_14h54.46.799,VDT,2023.2.3,120.16648346710772,2024-04-25 14h55.08.074003 +0200,
./images_beh/Sphere_Ref_BG-grey_stim-yellow.png,0,182,182,182,184.8728460589773,,,,,,,,,,184.8271087569883,184.8728460589773,184.8728460589773,185.59845897200285,185.61449125799118,185.7986603229656,['space'],0,0.43881485203746706,None,,,sub-003,ses-control-stim-z-2,run-1,grey,2024-04-25_14h54.46.799,VDT,2023.2.3,120.16648346710772,2024-04-25 14h55.08.074003 +0200,
./images_beh/Sphere_CW-1.5_BG-grey_stim-white.png,0,183,183,183,185.84865028300555,,,,,,,,,,185.79964813700644,185.85766785597662,185.85766785597662,186.59768175601494,186.59768175601494,186.83072083001025,None,0,,,,,sub-003,ses-control-stim-z-2,run-1,grey,2024-04-25_14h54.46.799,VDT,2023.2.3,120.16648346710772,2024-04-25 14h55.08.074003 +0200,
./images_beh/Sphere_CW-1.5_BG-grey_stim-white.png,0,184,184,184,186.87571524397936,,,,,,,,,,186.83140572800767,186.87571524397936,186.87571524397936,187.60742035100702,187.62347364699235,187.8581630359986,None,0,,,187.8461403690162,,sub-003,ses-control-stim-z-2,run-1,grey,2024-04-25_14h54.46.799,VDT,2023.2.3,120.16648346710772,2024-04-25 14h55.08.074003 +0200,
./images_beh/Sphere_CW-1.5_BG-grey_stim-white.png,0,185,185,185,187.90560775296763,,,,,,,,,,187.85897385701537,187.90560775296763,187.90560775296763,188.5982902139658,188.64781626797048,188.80774049798492,None,0,,,,,sub-003,ses-control-stim-z-2,run-1,grey,2024-04-25_14h54.46.799,VDT,2023.2.3,120.16648346710772,2024-04-25 14h55.08.074003 +0200,
./images_beh/Sphere_Ref_BG-grey_stim-yellow.png,0,186,186,186,188.85677519597812,,,,,,,,,,188.8088309650193,188.85677519597812,188.85677519597812,189.6065124939778,189.6065124939778,189.8457014010055,['space'],0,0.35924588999478146,None,189.8448976840009,189.8448976840009,sub-003,ses-control-stim-z-2,run-1,grey,2024-04-25_14h54.46.799,VDT,2023.2.3,120.16648346710772,2024-04-25 14h55.08.074003 +0200,
./images_beh/Sphere_Ref_BG-grey_stim-white.png,0,187,187,187,189.89279998699203,,,,,,,,,,189.84666839399142,189.89279998699203,189.89279998699203,190.59747147397138,190.63922881201142,190.84527431800961,None,0,,,190.84446664701682,,sub-003,ses-control-stim-z-2,run-1,grey,2024-04-25_14h54.46.799,VDT,2023.2.3,120.16648346710772,2024-04-25 14h55.08.074003 +0200,
./images_beh/Sphere_Ref_BG-grey_stim-white.png,0,188,188,188,190.89406613301253,,,,,,,,,,190.8459958099993,190.89406613301253,190.89406613301253,191.60790873499354,191.64099423697917,191.77282706002006,None,0,,,,,sub-003,ses-control-stim-z-2,run-1,grey,2024-04-25_14h54.46.799,VDT,2023.2.3,120.16648346710772,2024-04-25 14h55.08.074003 +0200,
./images_beh/Sphere_CW-1.5_BG-grey_stim-white.png,0,189,189,189,191.81949142500525,,,,,,,,,,191.77399541798513,191.85778239899082,191.85778239899082,192.59589993499685,192.60455175099196,192.7797004180029,None,0,,,,,sub-003,ses-control-stim-z-2,run-1,grey,2024-04-25_14h54.46.799,VDT,2023.2.3,120.16648346710772,2024-04-25 14h55.08.074003 +0200,
./images_beh/Sphere_CCW-1.5_BG-grey_stim-white.png,0,190,190,190,192.82942922099028,,,,,,,,,,192.7807622079854,192.84375510597602,192.84375510597602,193.60677277098875,193.60677277098875,193.78904365596827,None,0,,,,,sub-003,ses-control-stim-z-2,run-1,grey,2024-04-25_14h54.46.799,VDT,2023.2.3,120.16648346710772,2024-04-25 14h55.08.074003 +0200,
./images_beh/Sphere_CCW-1.5_BG-grey_stim-white.png,0,191,191,191,193.83583193900995,,,,,,,,,,193.7898213340086,193.85437606298365,193.85437606298365,194.60362455801805,194.60362455801805,194.77163676399505,None,0,,,,,sub-003,ses-control-stim-z-2,run-1,grey,2024-04-25_14h54.46.799,VDT,2023.2.3,120.16648346710772,2024-04-25 14h55.08.074003 +0200,
./images_beh/Sphere_CCW-1.5_BG-grey_stim-yellow.png,0,192,192,192,194.82042068900773,,,,,,,,,,194.7724262009724,194.85334364697337,194.85334364697337,195.6033520710189,195.59245727898087,195.80637968401425,['space'],0,0.4187024449929595,None,,,sub-003,ses-control-stim-z-2,run-1,grey,2024-04-25_14h54.46.799,VDT,2023.2.3,120.16648346710772,2024-04-25 14h55.08.074003 +0200,
./images_beh/Sphere_CCW-1.5_BG-grey_stim-white.png,0,193,193,193,195.8529633830185,,,,,,,,,,195.80737227300415,195.8529633830185,195.8529633830185,196.60232730099233,196.59099408099428,196.77794943697518,None,0,,,,,sub-003,ses-control-stim-z-2,run-1,grey,2024-04-25_14h54.46.799,VDT,2023.2.3,120.16648346710772,2024-04-25 14h55.08.074003 +0200,
./images_beh/Sphere_CCW-1.5_BG-grey_stim-white.png,0,194,194,194,196.82672272797208,,,,,,,,,,196.77866775501752,196.85228429397102,196.85228429397102,197.6191011989722,197.60450055496767,197.8031607720186,None,0,,,,,sub-003,ses-control-stim-z-2,run-1,grey,2024-04-25_14h54.46.799,VDT,2023.2.3,120.16648346710772,2024-04-25 14h55.08.074003 +0200,
./images_beh/Sphere_CW-1.5_BG-grey_stim-yellow.png,0,195,195,195,197.8504072559881,,,,,,,,,,197.8042398969992,197.85637636500178,197.85637636500178,198.60129111097194,198.60129111097194,198.8015622330131,['space'],0,0.4153973669745028,None,,,sub-003,ses-control-stim-z-2,run-1,grey,2024-04-25_14h54.46.799,VDT,2023.2.3,120.16648346710772,2024-04-25 14h55.08.074003 +0200,
./images_beh/Sphere_CW-1.5_BG-grey_stim-white.png,0,196,196,196,198.83763575798366,,,,,,,,,,198.80236732302,198.85651098698145,198.85651098698145,199.60098441597074,199.60098441597074,199.7849341040128,None,0,,,,,sub-003,ses-control-stim-z-2,run-1,grey,2024-04-25_14h54.46.799,VDT,2023.2.3,120.16648346710772,2024-04-25 14h55.08.074003 +0200,
./images_beh/Sphere_CW-1.5_BG-grey_stim-white.png,0,197,197,197,199.83156541798962,,,,,,,,,,199.7861474059755,199.8563749800087,199.8563749800087,200.6172199069988,200.6172199069988,200.75888394296635,None,0,,,,,sub-003,ses-control-stim-z-2,run-1,grey,2024-04-25_14h54.46.799,VDT,2023.2.3,120.16648346710772,2024-04-25 14h55.08.074003 +0200,
./images_beh/Sphere_CW-1.5_BG-grey_stim-white.png,0,198,198,198,200.8084812979796,,,,,,,,,,200.75988201098517,200.85072393296286,200.85072393296286,201.60011820401996,201.58970326400595,201.8345633179997,None,0,,,,,sub-003,ses-control-stim-z-2,run-1,grey,2024-04-25_14h54.46.799,VDT,2023.2.3,120.16648346710772,2024-04-25 14h55.08.074003 +0200,
./images_beh/Sphere_CCW-1.5_BG-grey_stim-white.png,0,199,199,199,201.88324343401473,,,,,,,,,,201.83540102100233,201.88324343401473,201.88324343401473,202.60497409501113,202.63189889496425,202.79991064500064,None,0,,,,,sub-003,ses-control-stim-z-2,run-1,grey,2024-04-25_14h54.46.799,VDT,2023.2.3,120.16648346710772,2024-04-25 14h55.08.074003 +0200,
./images_beh/Sphere_CW-1.5_BG-grey_stim-white.png,0,200,200,200,202.842571132991,,,,,,,,,,202.80094536801334,202.8482931239996,202.8482931239996,203.59868687501876,203.58812558400678,203.83576539496426,None,0,,,,,sub-003,ses-control-stim-z-2,run-1,grey,2024-04-25_14h54.46.799,VDT,2023.2.3,120.16648346710772,2024-04-25 14h55.08.074003 +0200,
./images_beh/Sphere_Ref_BG-grey_stim-yellow.png,0,201,201,201,203.88191647001076,,,,,,,,,,203.83650386397494,203.88191647001076,203.88191647001076,204.59825950401137,204.62200463400222,204.77190763596445,['space'],0,0.4304563189507462,None,,,sub-003,ses-control-stim-z-2,run-1,grey,2024-04-25_14h54.46.799,VDT,2023.2.3,120.16648346710772,2024-04-25 14h55.08.074003 +0200,
./images_beh/Sphere_CW-1.5_BG-grey_stim-white.png,0,202,202,202,204.81543777300976,,,,,,,,,,204.7726830369793,204.8546151969931,204.8546151969931,205.59774002601625,205.59774002601625,205.79887569596758,None,0,,,,,sub-003,ses-control-stim-z-2,run-1,grey,2024-04-25_14h54.46.799,VDT,2023.2.3,120.16648346710772,2024-04-25 14h55.08.074003 +0200,
./images_beh/Sphere_Ref_BG-grey_stim-white.png,0,203,203,203,205.8418704129872,,,,,,,,,,205.7995137029793,205.8470916749793,205.8470916749793,206.60456109402003,206.59749282099074,206.82129962998442,None,0,,,,,sub-003,ses-control-stim-z-2,run-1,grey,2024-04-25_14h54.46.799,VDT,2023.2.3,120.16648346710772,2024-04-25 14h55.08.074003 +0200,
./images_beh/Sphere_CW-1.5_BG-grey_stim-yellow.png,0,204,204,204,206.86549326096429,,,,,,,,,,206.82194106501993,206.86549326096429,206.86549326096429,207.60419457301032,207.613592123962,207.78739934501937,['space'],0,0.478876473964192,None,,,sub-003,ses-control-stim-z-2,run-1,grey,2024-04-25_14h54.46.799,VDT,2023.2.3,120.16648346710772,2024-04-25 14h55.08.074003 +0200,
./images_beh/Sphere_CW-1.5_BG-grey_stim-white.png,0,205,205,205,207.83272344997386,,,,,,,,,,207.78870874998393,207.85192148498027,207.85192148498027,208.6034844010137,208.5966452829889,208.8328663459979,None,0,,,,,sub-003,ses-control-stim-z-2,run-1,grey,2024-04-25_14h54.46.799,VDT,2023.2.3,120.16648346710772,2024-04-25 14h55.08.074003 +0200,
./images_beh/Sphere_CCW-1.5_BG-grey_stim-white.png,0,206,206,206,208.88152992498362,,,,,,,,,,208.83364218799397,208.88152992498362,208.88152992498362,209.60175319598056,209.62884027598193,209.81739954801742,None,0,,,,,sub-003,ses-control-stim-z-2,run-1,grey,2024-04-25_14h54.46.799,VDT,2023.2.3,120.16648346710772,2024-04-25 14h55.08.074003 +0200,
./images_beh/Sphere_Ref_BG-grey_stim-white.png,0,207,207,207,209.852077011019,,,,,,,,,,209.81769289501244,209.86143186496338,209.86143186496338,210.60012941499008,210.60012941499008,210.81709168700036,None,0,,,,,sub-003,ses-control-stim-z-2,run-1,grey,2024-04-25_14h54.46.799,VDT,2023.2.3,120.16648346710772,2024-04-25 14h55.08.074003 +0200,
./images_beh/Sphere_CCW-1.5_BG-grey_stim-white.png,0,208,208,208,210.851304145006,,,,,,,,,,210.8174753439962,210.86142661096528,210.86142661096528,211.5998327700072,211.5998327700072,211.8165969440015,None,0,,,,,sub-003,ses-control-stim-z-2,run-1,grey,2024-04-25_14h54.46.799,VDT,2023.2.3,120.16648346710772,2024-04-25 14h55.08.074003 +0200,
./images_beh/Sphere_CCW-1.5_BG-grey_stim-white.png,0,209,209,209,211.8502164889942,,,,,,,,,,211.8169389879913,211.8608148979838,211.8608148979838,212.59902376198443,212.59902376198443,212.79414314898895,None,0,,,,,sub-003,ses-control-stim-z-2,run-1,grey,2024-04-25_14h54.46.799,VDT,2023.2.3,120.16648346710772,2024-04-25 14h55.08.074003 +0200,
./images_beh/Sphere_Ref_BG-grey_stim-yellow.png,0,210,210,210,212.82843239296926,,,,,,,,,,212.79496105597354,212.8488523059641,212.8488523059641,213.59820770600345,213.59319817699725,213.83141207700828,['space'],0,0.39120261900825426,None,,,sub-003,ses-control-stim-z-2,run-1,grey,2024-04-25_14h54.46.799,VDT,2023.2.3,120.16648346710772,2024-04-25 14h55.08.074003 +0200,
./images_beh/Sphere_CCW-1.5_BG-grey_stim-white.png,0,211,211,211,213.8656688510091,,,,,,,,,,213.8317848709994,213.8656688510091,213.8656688510091,214.59999559400603,214.6097964909859,214.82798745896434,None,0,,,,,sub-003,ses-control-stim-z-2,run-1,grey,2024-04-25_14h54.46.799,VDT,2023.2.3,120.16648346710772,2024-04-25 14h55.08.074003 +0200,
./images_beh/Sphere_CCW-1.5_BG-grey_stim-white.png,0,212,212,212,214.87360496696783,,,,,,,,,,214.82877519197064,214.87360496696783,214.87360496696783,215.6098851300194,215.6162493849988,215.77671002200805,None,0,,,,,sub-003,ses-control-stim-z-2,run-1,grey,2024-04-25_14h54.46.799,VDT,2023.2.3,120.16648346710772,2024-04-25 14h55.08.074003 +0200,
./images_beh/Sphere_CCW-1.5_BG-grey_stim-yellow.png,0,213,213,213,215.82401851698523,,,,,,,,,,215.7777552009793,215.84717408800498,215.84717408800498,216.5987964940141,216.59199372399598,216.82661042298423,['space'],0,0.4157641600468196,None,,,sub-003,ses-control-stim-z-2,run-1,grey,2024-04-25_14h54.46.799,VDT,2023.2.3,120.16648346710772,2024-04-25 14h55.08.074003 +0200,
./images_beh/Sphere_CW-1.5_BG-grey_stim-white.png,0,214,214,214,216.87315450096503,,,,,,,,,,216.82761106698308,216.87315450096503,216.87315450096503,217.59953819797374,217.61413362598978,217.8423511260189,None,0,,,,,sub-003,ses-control-stim-z-2,run-1,grey,2024-04-25_14h54.46.799,VDT,2023.2.3,120.16648346710772,2024-04-25 14h55.08.074003 +0200,
./images_beh/Sphere_CW-1.5_BG-grey_stim-white.png,0,215,215,215,217.88720991497394,,,,,,,,,,217.84332779498072,217.88720991497394,217.88720991497394,218.59826297999825,218.63006609899458,218.77491056901636,None,0,,,,,sub-003,ses-control-stim-z-2,run-1,grey,2024-04-25_14h54.46.799,VDT,2023.2.3,120.16648346710772,2024-04-25 14h55.08.074003 +0200,
./images_beh/Sphere_CCW-1.5_BG-grey_stim-white.png,0,216,216,216,218.82126805797452,,,,,,,,,,218.77603091101628,218.845814108965,218.845814108965,219.59652851498686,219.59035979100736,219.8415593439713,None,0,,,219.84039147599833,219.84039147599833,sub-003,ses-control-stim-z-2,run-1,grey,2024-04-25_14h54.46.799,VDT,2023.2.3,120.16648346710772,2024-04-25 14h55.08.074003 +0200,
./images_beh/Sphere_CCW-1.5_BG-grey_stim-white.png,0,217,217,217,219.8887797970092,,,,,,,,,,219.8424962629797,219.8887797970092,219.8887797970092,220.59814644401195,220.62942965701222,220.84695492696483,None,0,,,220.8460374919814,,sub-003,ses-control-stim-z-2,run-1,grey,2024-04-25_14h54.46.799,VDT,2023.2.3,120.16648346710772,2024-04-25 14h55.08.074003 +0200,
./images_beh/Sphere_CCW-1.5_BG-grey_stim-yellow.png,0,218,218,218,220.89613929600455,,,,,,,,,,220.84767882101005,220.89613929600455,220.89613929600455,221.5980381309637,221.63949261698872,221.86306529701687,['space'],0,0.41522653098218143,None,221.8454450959689,,sub-003,ses-control-stim-z-2,run-1,grey,2024-04-25_14h54.46.799,VDT,2023.2.3,120.16648346710772,2024-04-25 14h55.08.074003 +0200,
./images_beh/Sphere_CW-1.5_BG-grey_stim-white.png,0,219,219,219,221.91074376896722,,,,,,,,,,221.86401477700565,221.91074376896722,221.91074376896722,222.5970647489885,222.6555264259805,222.7804147839779,None,0,,,,,sub-003,ses-control-stim-z-2,run-1,grey,2024-04-25_14h54.46.799,VDT,2023.2.3,120.16648346710772,2024-04-25 14h55.08.074003 +0200,
./images_beh/Sphere_CW-1.5_BG-grey_stim-white.png,0,220,220,220,222.82663174998015,,,,,,,,,,222.7811529780156,222.84464535000734,222.84464535000734,223.59619893698255,223.58890193898696,223.7791035079863,None,0,,,,,sub-003,ses-control-stim-z-2,run-1,grey,2024-04-25_14h54.46.799,VDT,2023.2.3,120.16648346710772,2024-04-25 14h55.08.074003 +0200,
./images_beh/Sphere_Ref_BG-grey_stim-white.png,0,221,221,221,223.82510052400175,,,,,,,,,,223.7798088620184,223.84443781198934,223.84443781198934,224.5952180059976,224.5881415180047,224.8391953270184,None,0,,,224.83803346398054,224.83803346398054,sub-003,ses-control-stim-z-2,run-1,grey,2024-04-25_14h54.46.799,VDT,2023.2.3,120.16648346710772,2024-04-25 14h55.08.074003 +0200,
./images_beh/Sphere_CW-1.5_BG-grey_stim-yellow.png,0,222,222,222,224.88690269499784,,,,,,,,,,224.84017437597504,224.88690269499784,224.88690269499784,225.60372455598554,225.62681317998795,225.8720503259683,['space'],0,0.5692070570075884,None,225.8569274150068,,sub-003,ses-control-stim-z-2,run-1,grey,2024-04-25_14h54.46.799,VDT,2023.2.3,120.16648346710772,2024-04-25 14h55.08.074003 +0200,
./images_beh/Sphere_CCW-1.5_BG-grey_stim-white.png,0,223,223,223,225.92139499098994,,,,,,,,,,225.87336877500638,225.92139499098994,225.92139499098994,226.60452896298375,226.67049037100514,226.79497076297412,None,0,,,,,sub-003,ses-control-stim-z-2,run-1,grey,2024-04-25_14h54.46.799,VDT,2023.2.3,120.16648346710772,2024-04-25 14h55.08.074003 +0200,
./images_beh/Sphere_CW-1.5_BG-grey_stim-white.png,0,224,224,224,226.84455911198165,,,,,,,,,,226.79569472098956,226.85341406898806,226.85341406898806,227.60637775197392,227.5926916070166,227.8378024129779,None,0,,,,,sub-003,ses-control-stim-z-2,run-1,grey,2024-04-25_14h54.46.799,VDT,2023.2.3,120.16648346710772,2024-04-25 14h55.08.074003 +0200,
./images_beh/Sphere_CW-1.5_BG-grey_stim-white.png,0,225,225,225,227.88713390397606,,,,,,,,,,227.83875771099702,227.88713390397606,227.88713390397606,228.60294484597398,228.63615882699378,228.8203631369979,None,0,,,,,sub-003,ses-control-stim-z-2,run-1,grey,2024-04-25_14h54.46.799,VDT,2023.2.3,120.16648346710772,2024-04-25 14h55.08.074003 +0200,
./images_beh/Sphere_CW-1.5_BG-grey_stim-white.png,0,226,226,226,228.8682939899736,,,,,,,,,,228.82167110097362,228.8682939899736,228.8682939899736,229.6021362959873,229.60923472297145,229.82221427501645,None,0,,,,,sub-003,ses-control-stim-z-2,run-1,grey,2024-04-25_14h54.46.799,VDT,2023.2.3,120.16648346710772,2024-04-25 14h55.08.074003 +0200,
./images_beh/Sphere_Ref_BG-grey_stim-yellow.png,0,227,227,227,229.8703523449949,,,,,,,,,,229.8229705140111,229.8703523449949,229.8703523449949,230.60179175401572,230.61833066697,230.77652199397562,['space'],0,0.39382633403874934,None,,,sub-003,ses-control-stim-z-2,run-1,grey,2024-04-25_14h54.46.799,VDT,2023.2.3,120.16648346710772,2024-04-25 14h55.08.074003 +0200,
./images_beh/Sphere_CW-1.5_BG-grey_stim-white.png,0,228,228,228,230.82422029197915,,,,,,,,,,230.7779620559886,230.85148431698326,230.85148431698326,231.60143159597646,231.59077857801458,231.79255044698948,None,0,,,,,sub-003,ses-control-stim-z-2,run-1,grey,2024-04-25_14h54.46.799,VDT,2023.2.3,120.16648346710772,2024-04-25 14h55.08.074003 +0200,
./images_beh/Sphere_Ref_BG-grey_stim-white.png,0,229,229,229,231.83911645697663,,,,,,,,,,231.7933826209628,231.85155465296702,231.85155465296702,232.6007721979986,232.59042099496583,232.79176850698423,None,0,,,,,sub-003,ses-control-stim-z-2,run-1,grey,2024-04-25_14h54.46.799,VDT,2023.2.3,120.16648346710772,2024-04-25 14h55.08.074003 +0200,
./images_beh/Sphere_CCW-1.5_BG-grey_stim-white.png,0,230,230,230,232.83872651698766,,,,,,,,,,232.79248381400248,232.8505613830057,232.8505613830057,233.6001032019849,233.589679082972,233.8250820459798,None,0,,,,,sub-003,ses-control-stim-z-2,run-1,grey,2024-04-25_14h54.46.799,VDT,2023.2.3,120.16648346710772,2024-04-25 14h55.08.074003 +0200,
./images_beh/Sphere_Ref_BG-grey_stim-yellow.png,0,231,231,231,233.87446772801923,,,,,,,,,,233.82797238399507,233.87446772801923,233.87446772801923,234.59959518100368,234.61623915599193,234.8200618409901,['space'],0,0.42080200399504974,None,,,sub-003,ses-control-stim-z-2,run-1,grey,2024-04-25_14h54.46.799,VDT,2023.2.3,120.16648346710772,2024-04-25 14h55.08.074003 +0200,
./images_beh/Sphere_CCW-1.5_BG-grey_stim-white.png,0,232,232,232,234.87026024900842,,,,,,,,,,234.82132449600613,234.87026024900842,234.87026024900842,235.59895209100796,235.61560105497483,235.7861473899684,None,0,,,,,sub-003,ses-control-stim-z-2,run-1,grey,2024-04-25_14h54.46.799,VDT,2023.2.3,120.16648346710772,2024-04-25 14h55.08.074003 +0200,
./images_beh/Sphere_CCW-1.5_BG-grey_stim-white.png,0,233,233,233,235.83348241797648,,,,,,,,,,235.7868836959824,235.8547756280168,235.8547756280168,236.60315689601703,236.60315689601703,236.81866653700126,None,0,,,,,sub-003,ses-control-stim-z-2,run-1,grey,2024-04-25_14h54.46.799,VDT,2023.2.3,120.16648346710772,2024-04-25 14h55.08.074003 +0200,
./images_beh/Sphere_CW-1.5_BG-grey_stim-white.png,0,234,234,234,236.86959436099278,,,,,,,,,,236.81938939000247,236.86959436099278,236.86959436099278,237.59843733801972,237.61505793198012,237.898851534992,None,0,,,237.83698347798781,237.86844903801102,sub-003,ses-control-stim-z-2,run-1,grey,2024-04-25_14h54.46.799,VDT,2023.2.3,120.16648346710772,2024-04-25 14h55.08.074003 +0200,
./images_beh/Sphere_CW-1.5_BG-grey_stim-white.png,0,235,235,235,237.94521464797435,,,,,,,,,,237.8999434770085,237.94521464797435,237.94521464797435,238.61713410599623,238.68781139299972,238.822782578005,None,0,,,,,sub-003,ses-control-stim-z-2,run-1,grey,2024-04-25_14h54.46.799,VDT,2023.2.3,120.16648346710772,2024-04-25 14h55.08.074003 +0200,
./images_beh/Sphere_CW-1.5_BG-grey_stim-white.png,0,236,236,236,238.872259353986,,,,,,,,,,238.82361721398775,238.872259353986,238.872259353986,239.60467657801928,239.6137677009683,239.78099273098633,None,0,,,,,sub-003,ses-control-stim-z-2,run-1,grey,2024-04-25_14h54.46.799,VDT,2023.2.3,120.16648346710772,2024-04-25 14h55.08.074003 +0200,
./images_beh/Sphere_CW-1.5_BG-grey_stim-yellow.png,0,237,237,237,239.81996342999628,,,,,,,,,,239.7820496649947,239.85261039901525,239.85261039901525,240.60385198396398,240.59675560100004,240.84763372701127,['space'],0,0.4291337889735587,None,240.8464921109844,240.8464921109844,sub-003,ses-control-stim-z-2,run-1,grey,2024-04-25_14h54.46.799,VDT,2023.2.3,120.16648346710772,2024-04-25 14h55.08.074003 +0200,
./images_beh/Sphere_CCW-1.5_BG-grey_stim-white.png,0,238,238,238,240.89708845800487,,,,,,,,,,240.84863593097543,240.89708845800487,240.89708845800487,241.6034448959981,241.6361369030201,241.83030938199954,None,0,,,,,sub-003,ses-control-stim-z-2,run-1,grey,2024-04-25_14h54.46.799,VDT,2023.2.3,120.16648346710772,2024-04-25 14h55.08.074003 +0200,
./images_beh/Sphere_CCW-1.5_BG-grey_stim-white.png,0,239,239,239,241.8800740870065,,,,,,,,,,241.8314272639691,241.8800740870065,241.8800740870065,242.6028078959789,242.62898140097968,242.83241098799044,None,0,,,,,sub-003,ses-control-stim-z-2,run-1,grey,2024-04-25_14h54.46.799,VDT,2023.2.3,120.16648346710772,2024-04-25 14h55.08.074003 +0200,
./images_beh/Sphere_Ref_BG-grey_stim-yellow.png,0,240,240,240,242.88048901001457,,,,,,,,,,242.8331607899745,242.88048901001457,242.88048901001457,243.60269074101234,243.62807218998205,243.81251012801658,['space'],0,0.35969061800278723,None,,,sub-003,ses-control-stim-z-2,run-1,grey,2024-04-25_14h54.46.799,VDT,2023.2.3,120.16648346710772,2024-04-25 14h55.08.074003 +0200,
./images_beh/Sphere_CCW-1.5_BG-grey_stim-white.png,0,241,241,241,243.85836881399155,,,,,,,,,,243.81356800999492,243.85836881399155,243.85836881399155,244.60157379496377,244.60157379496377,244.76230319199385,None,0,,,,,sub-003,ses-control-stim-z-2,run-1,grey,2024-04-25_14h54.46.799,VDT,2023.2.3,120.16648346710772,2024-04-25 14h55.08.074003 +0200,
./images_beh/Sphere_Ref_BG-grey_stim-white.png,0,242,242,242,244.80740704300115,,,,,,,,,,244.76314003398875,244.8505054449779,244.8505054449779,245.60082919098204,245.59412227699067,245.83478743897285,None,0,,,,,sub-003,ses-control-stim-z-2,run-1,grey,2024-04-25_14h54.46.799,VDT,2023.2.3,120.16648346710772,2024-04-25 14h55.08.074003 +0200,
./images_beh/Sphere_Ref_BG-grey_stim-white.png,0,243,243,243,245.87972632300807,,,,,,,,,,245.8355151389842,245.87972632300807,245.87972632300807,246.60054901998956,246.6269484370132,246.81791696097935,None,0,,,,,sub-003,ses-control-stim-z-2,run-1,grey,2024-04-25_14h54.46.799,VDT,2023.2.3,120.16648346710772,2024-04-25 14h55.08.074003 +0200,
./images_beh/Sphere_Ref_BG-grey_stim-yellow.png,0,244,244,244,246.86599983100314,,,,,,,,,,246.81880379997892,246.86599983100314,246.86599983100314,247.60112672497053,247.60984560399083,247.79380120296264,['space'],0,0.3739142590202391,None,,,sub-003,ses-control-stim-z-2,run-1,grey,2024-04-25_14h54.46.799,VDT,2023.2.3,120.16648346710772,2024-04-25 14h55.08.074003 +0200,
./images_beh/Sphere_CCW-1.5_BG-grey_stim-white.png,0,245,245,245,247.83913559198845,,,,,,,,,,247.79508071101736,247.84453672298696,247.84453672298696,248.5993863780168,248.59263361798367,248.80013648199383,None,0,,,,,sub-003,ses-control-stim-z-2,run-1,grey,2024-04-25_14h54.46.799,VDT,2023.2.3,120.16648346710772,2024-04-25 14h55.08.074003 +0200,
./images_beh/Sphere_CCW-1.5_BG-grey_stim-white.png,0,246,246,246,248.84513608901761,,,,,,,,,,248.80072605097666,248.85927038401132,248.85927038401132,249.59855014301138,249.59855014301138,249.7986652359832,None,0,,,,,sub-003,ses-control-stim-z-2,run-1,grey,2024-04-25_14h54.46.799,VDT,2023.2.3,120.16648346710772,2024-04-25 14h55.08.074003 +0200,
./images_beh/Sphere_CCW-1.5_BG-grey_stim-white.png,0,247,247,247,249.8430140069686,,,,,,,,,,249.7994204799761,249.8583379079937,249.8583379079937,250.59831456898246,250.59831456898246,250.80908470600843,None,0,,,,,sub-003,ses-control-stim-z-2,run-1,grey,2024-04-25_14h54.46.799,VDT,2023.2.3,120.16648346710772,2024-04-25 14h55.08.074003 +0200,
./images_beh/Sphere_CW-1.5_BG-grey_stim-white.png,0,248,248,248,250.8584232449648,,,,,,,,,,250.81016007601283,250.8584232449648,250.8584232449648,251.59745732799638,251.59745732799638,251.7915026199771,None,0,,,,,sub-003,ses-control-stim-z-2,run-1,grey,2024-04-25_14h54.46.799,VDT,2023.2.3,120.16648346710772,2024-04-25 14h55.08.074003 +0200,
./images_beh/Sphere_CCW-1.5_BG-grey_stim-yellow.png,0,249,249,249,251.83484938397305,,,,,,,,,,251.7924832169665,251.84569363901392,251.84569363901392,252.59665424900595,252.5904927889933,252.8080072979792,['space'],0,0.4259571009897627,None,,,sub-003,ses-control-stim-z-2,run-1,grey,2024-04-25_14h54.46.799,VDT,2023.2.3,120.16648346710772,2024-04-25 14h55.08.074003 +0200,
./images_beh/Sphere_CW-1.5_BG-grey_stim-white.png,0,250,250,250,252.85589537001215,,,,,,,,,,252.80923161201645,252.85589537001215,252.85589537001215,253.59601870499318,253.59601870499318,253.81432876701,None,0,,,,,sub-003,ses-control-stim-z-2,run-1,grey,2024-04-25_14h54.46.799,VDT,2023.2.3,120.16648346710772,2024-04-25 14h55.08.074003 +0200,
./images_beh/Sphere_CW-1.5_BG-grey_stim-white.png,0,251,251,251,253.86044315900654,,,,,,,,,,253.81504964997293,253.86044315900654,253.86044315900654,254.59711066097952,254.60604236699874,254.79739679099293,None,0,,,,,sub-003,ses-control-stim-z-2,run-1,grey,2024-04-25_14h54.46.799,VDT,2023.2.3,120.16648346710772,2024-04-25 14h55.08.074003 +0200,
./images_beh/Sphere_CW-1.5_BG-grey_stim-white.png,0,252,252,252,254.84458483499475,,,,,,,,,,254.79811740200967,254.85542952996911,254.85542952996911,255.6084016970126,255.6084016970126,255.77579047699692,None,0,,,,,sub-003,ses-control-stim-z-2,run-1,grey,2024-04-25_14h54.46.799,VDT,2023.2.3,120.16648346710772,2024-04-25 14h55.08.074003 +0200,
./images_beh/Sphere_Ref_BG-grey_stim-white.png,0,253,253,253,255.82303011696786,,,,,,,,,,255.77651688997867,255.84481386997504,255.84481386997504,256.59574919298757,256.58879348199116,256.7964182969881,None,0,,,,,sub-003,ses-control-stim-z-2,run-1,grey,2024-04-25_14h54.46.799,VDT,2023.2.3,120.16648346710772,2024-04-25 14h55.08.074003 +0200,
./images_beh/Sphere_CCW-1.5_BG-grey_stim-white.png,0,254,254,254,256.8442369190161,,,,,,,,,,256.7971447649761,256.85520436399383,256.85520436399383,257.60731582401786,257.60731582401786,257.7956035779789,None,0,,,,,sub-003,ses-control-stim-z-2,run-1,grey,2024-04-25_14h54.46.799,VDT,2023.2.3,120.16648346710772,2024-04-25 14h55.08.074003 +0200,
./images_beh/Sphere_CW-1.5_BG-grey_stim-yellow.png,0,255,255,255,257.8386839819723,,,,,,,,,,257.7962155439891,257.8546899689827,257.8546899689827,258.60765767196426,258.60765767196426,258.8055384049658,['space'],0,0.3528261099709198,None,,,sub-003,ses-control-stim-z-2,run-1,grey,2024-04-25_14h54.46.799,VDT,2023.2.3,120.16648346710772,2024-04-25 14h55.08.074003 +0200,
./images_beh/Sphere_Ref_BG-grey_stim-white.png,0,256,256,256,258.8511704049888,,,,,,,,,,258.80631720501697,258.85663418500917,258.85663418500917,259.60351469001034,259.60351469001034,259.8401727869641,None,0,,,,,sub-003,ses-control-stim-z-2,run-1,grey,2024-04-25_14h54.46.799,VDT,2023.2.3,120.16648346710772,2024-04-25 14h55.08.074003 +0200,
./images_beh/Sphere_CCW-1.5_BG-grey_stim-white.png,0,257,257,257,259.888555750018,,,,,,,,,,259.84090308099985,259.888555750018,259.888555750018,260.60327016201336,260.63641348696547,260.79356243798975,None,0,,,,,sub-003,ses-control-stim-z-2,run-1,grey,2024-04-25_14h54.46.799,VDT,2023.2.3,120.16648346710772,2024-04-25 14h55.08.074003 +0200,
./images_beh/Sphere_CW-1.5_BG-grey_stim-white.png,0,258,258,258,260.8374523919774,,,,,,,,,,260.7943093929789,260.85836767900037,260.85836767900037,261.6027360470034,261.6027360470034,261.8201233819709,None,0,,,,,sub-003,ses-control-stim-z-2,run-1,grey,2024-04-25_14h54.46.799,VDT,2023.2.3,120.16648346710772,2024-04-25 14h55.08.074003 +0200,
./images_beh/Sphere_CCW-1.5_BG-grey_stim-yellow.png,0,259,259,259,261.86784611898474,,,,,,,,,,261.82131757499883,261.86784611898474,261.86784611898474,262.6021227189922,262.61006483400706,262.79336897999747,['space'],0,0.39649366098456085,None,,,sub-003,ses-control-stim-z-2,run-1,grey,2024-04-25_14h54.46.799,VDT,2023.2.3,120.16648346710772,2024-04-25 14h55.08.074003 +0200,
./images_beh/Sphere_CW-1.5_BG-grey_stim-white.png,0,260,260,260,262.83934494497953,,,,,,,,,,262.7943251269753,262.85175536799943,262.85175536799943,263.6045367299812,263.5920187779702,263.77167695900425,None,0,,,,,sub-003,ses-control-stim-z-2,run-1,grey,2024-04-25_14h54.46.799,VDT,2023.2.3,120.16648346710772,2024-04-25 14h55.08.074003 +0200,
./images_beh/Sphere_CCW-1.5_BG-grey_stim-white.png,0,261,261,261,263.81660258496413,,,,,,,,,,263.77239640499465,263.85178091801936,263.85178091801936,264.6034788250108,264.5906530370121,264.7922693800065,None,0,,,,,sub-003,ses-control-stim-z-2,run-1,grey,2024-04-25_14h54.46.799,VDT,2023.2.3,120.16648346710772,2024-04-25 14h55.08.074003 +0200,
./images_beh/Sphere_CCW-1.5_BG-grey_stim-white.png,0,262,262,262,264.83705792896217,,,,,,,,,,264.79298872099025,264.85665060399333,264.85665060399333,265.60070825199364,265.60070825199364,265.80923147598514,None,0,,,,,sub-003,ses-control-stim-z-2,run-1,grey,2024-04-25_14h54.46.799,VDT,2023.2.3,120.16648346710772,2024-04-25 14h55.08.074003 +0200,
./images_beh/Sphere_Ref_BG-grey_stim-yellow.png,0,263,263,263,265.85763247997966,,,,,,,,,,265.80995734600583,265.85763247997966,265.85763247997966,266.600086307968,266.600086307968,266.823738356994,['space'],0,0.4144458480295725,None,,,sub-003,ses-control-stim-z-2,run-1,grey,2024-04-25_14h54.46.799,VDT,2023.2.3,120.16648346710772,2024-04-25 14h55.08.074003 +0200,
./images_beh/Sphere_CCW-1.5_BG-grey_stim-white.png,0,264,264,264,266.8653380830074,,,,,,,,,,266.824392909999,266.8653380830074,266.8653380830074,267.5997783719795,267.6070207069861,267.88417364197085,None,0,,,267.83853416499915,267.85536350199254,sub-003,ses-control-stim-z-2,run-1,grey,2024-04-25_14h54.46.799,VDT,2023.2.3,120.16648346710772,2024-04-25 14h55.08.074003 +0200,
./images_beh/Sphere_CCW-1.5_BG-grey_stim-white.png,0,265,265,265,267.93072259397013,,,,,,,,,,267.8849571059691,267.93072259397013,267.93072259397013,268.60814092401415,268.6724329710123,268.8560724629788,None,0,,,268.8550671080011,,sub-003,ses-control-stim-z-2,run-1,grey,2024-04-25_14h54.46.799,VDT,2023.2.3,120.16648346710772,2024-04-25 14h55.08.074003 +0200,
./images_beh/Sphere_CW-1.5_BG-grey_stim-white.png,0,266,266,266,268.9033943719696,,,,,,,,,,268.8567932189908,268.9033943719696,268.9033943719696,269.6011686779675,269.64860249101184,269.7894518469693,None,0,,,,,sub-003,ses-control-stim-z-2,run-1,grey,2024-04-25_14h54.46.799,VDT,2023.2.3,120.16648346710772,2024-04-25 14h55.08.074003 +0200,
./images_beh/Sphere_Ref_BG-grey_stim-yellow.png,0,267,267,267,269.83288452698616,,,,,,,,,,269.7900408260175,269.8539297489915,269.8539297489915,270.60508308699355,270.59790264000185,270.7990332629997,['space'],0,0.46481967996805906,None,,,sub-003,ses-control-stim-z-2,run-1,grey,2024-04-25_14h54.46.799,VDT,2023.2.3,120.16648346710772,2024-04-25 14h55.08.074003 +0200,
./images_beh/Sphere_CW-1.5_BG-grey_stim-white.png,0,268,268,268,270.8465024040197,,,,,,,,,,270.8000445389771,270.8521151280147,270.8521151280147,271.5975433840067,271.5975433840067,271.83153366699116,None,0,,,,,sub-003,ses-control-stim-z-2,run-1,grey,2024-04-25_14h54.46.799,VDT,2023.2.3,120.16648346710772,2024-04-25 14h55.08.074003 +0200,
./images_beh/Sphere_CW-1.5_BG-grey_stim-white.png,0,269,269,269,271.87277010199614,,,,,,,,,,271.83204334398033,271.87277010199614,271.87277010199614,272.59710274398094,272.6137731989729,272.86480536096497,None,0,,,272.8494528919691,,sub-003,ses-control-stim-z-2,run-1,grey,2024-04-25_14h54.46.799,VDT,2023.2.3,120.16648346710772,2024-04-25 14h55.08.074003 +0200,
