image,trials.thisRepN,trials.thisTrialN,trials.thisN,trials.thisIndex,thisRow.t,notes,WaitingForScannerTrigger.started,Vertical.started,key_resp.started,WaitingForScannerTrigger.stopped,key_resp.keys,key_resp.corr,key_resp.rt,key_resp.duration,VDT.started,PresentedLine1.started,key_resp_2.started,FixDot2.started,PresentedLine1.stopped,VDT.stopped,key_resp_2.keys,key_resp_2.corr,key_resp_2.rt,key_resp_2.duration,FixDot2.stopped,key_resp_2.stopped,participant,session,run,BG_color,date,expName,psychopyVersion,frameRate,expStart,
,,,,,,,0.0037601779913529754,0.00933300395263359,0.00933300395263359,4.913020305975806,s,0,4.864939464023337,None,,,,,,,,,,,,,sub-sepehr,ses-main-base-z-1,run-1,grey,2024-04-25_11h50.24.269,VDT,2023.2.3,120.20974821185203,2024-04-25 11h51.17.037596 +0200,
./images_beh/Sphere_CW-1.5_BG-grey_stim-white.png,0,0,0,0,4.974254292959813,,,,,,,,,,4.932233111991081,4.974254292959813,4.974254292959813,5.661749145947397,5.719507827947382,5.870583557989448,None,0,,,,,sub-sepehr,ses-main-base-z-1,run-1,grey,2024-04-25_11h50.24.269,VDT,2023.2.3,120.20974821185203,2024-04-25 11h51.17.037596 +0200,
./images_beh/Sphere_CCW-1.5_BG-grey_stim-white.png,0,1,1,1,5.925068089971319,,,,,,,,,,5.873792416998185,5.925068089971319,5.925068089971319,6.661069614987355,6.669098180951551,6.86100842198357,None,0,,,,,sub-sepehr,ses-main-base-z-1,run-1,grey,2024-04-25_11h50.24.269,VDT,2023.2.3,120.20974821185203,2024-04-25 11h51.17.037596 +0200,
./images_beh/Sphere_Ref_BG-grey_stim-white.png,0,2,2,2,6.909626936947461,,,,,,,,,,6.86179578199517,6.919524321972858,6.919524321972858,7.671150952985045,7.671150952985045,7.836864399956539,None,0,,,,,sub-sepehr,ses-main-base-z-1,run-1,grey,2024-04-25_11h50.24.269,VDT,2023.2.3,120.20974821185203,2024-04-25 11h51.17.037596 +0200,
./images_beh/Sphere_CW-1.5_BG-grey_stim-white.png,0,3,3,3,7.882991782971658,,,,,,,,,,7.837698268995155,7.92159790097503,7.92159790097503,8.658801751967985,8.667711748974398,8.87558013596572,None,0,,,,,sub-sepehr,ses-main-base-z-1,run-1,grey,2024-04-25_11h50.24.269,VDT,2023.2.3,120.20974821185203,2024-04-25 11h51.17.037596 +0200,
./images_beh/Sphere_CW-1.5_BG-grey_stim-white.png,0,4,4,4,8.919441666977946,,,,,,,,,,8.876398342952598,8.919441666977946,8.919441666977946,9.659402082965244,9.667852533981204,9.841594166995492,None,0,,,,,sub-sepehr,ses-main-base-z-1,run-1,grey,2024-04-25_11h50.24.269,VDT,2023.2.3,120.20974821185203,2024-04-25 11h51.17.037596 +0200,
./images_beh/Sphere_Ref_BG-grey_stim-white.png,0,5,5,5,9.888675486959983,,,,,,,,,,9.842359631962609,9.905715842964128,9.905715842964128,10.656193725997582,10.650190809974447,10.840112254954875,['space'],0,0.6386185830342583,None,,,sub-sepehr,ses-main-base-z-1,run-1,grey,2024-04-25_11h50.24.269,VDT,2023.2.3,120.20974821185203,2024-04-25 11h51.17.037596 +0200,
./images_beh/Sphere_CW-1.5_BG-grey_stim-white.png,0,6,6,6,10.877508285979275,,,,,,,,,,10.842052099993452,10.906211053952575,10.906211053952575,11.656437620986253,11.6500872829929,11.917356416990515,None,0,,,11.899715655948967,11.899715655948967,sub-sepehr,ses-main-base-z-1,run-1,grey,2024-04-25_11h50.24.269,VDT,2023.2.3,120.20974821185203,2024-04-25 11h51.17.037596 +0200,
./images_beh/Sphere_CCW-1.5_BG-grey_stim-white.png,0,7,7,7,11.961699022969697,,,,,,,,,,11.918346111953724,11.961699022969697,11.961699022969697,12.65636274998542,12.70675998996012,12.889728899986949,None,0,,,,,sub-sepehr,ses-main-base-z-1,run-1,grey,2024-04-25_11h50.24.269,VDT,2023.2.3,120.20974821185203,2024-04-25 11h51.17.037596 +0200,
./images_beh/Sphere_Ref_BG-grey_stim-white.png,0,8,8,8,12.934436427953187,,,,,,,,,,12.891659304965287,12.934436427953187,12.934436427953187,13.656385896960273,13.682081876962911,13.857157074962743,None,0,,,,,sub-sepehr,ses-main-base-z-1,run-1,grey,2024-04-25_11h50.24.269,VDT,2023.2.3,120.20974821185203,2024-04-25 11h51.17.037596 +0200,
./images_beh/Sphere_CW-1.5_BG-grey_stim-white.png,0,9,9,9,13.905491009994876,,,,,,,,,,13.857891544001177,13.91521741397446,13.91521741397446,14.655276448000222,14.655276448000222,14.833271703973878,None,0,,,,,sub-sepehr,ses-main-base-z-1,run-1,grey,2024-04-25_11h50.24.269,VDT,2023.2.3,120.20974821185203,2024-04-25 11h51.17.037596 +0200,
./images_beh/Sphere_CCW-1.5_BG-grey_stim-white.png,0,10,10,10,14.882066583959386,,,,,,,,,,14.834407786955126,14.903683188953437,14.903683188953437,15.664475881960243,15.650518738955725,15.871384290978312,None,0,,,,,sub-sepehr,ses-main-base-z-1,run-1,grey,2024-04-25_11h50.24.269,VDT,2023.2.3,120.20974821185203,2024-04-25 11h51.17.037596 +0200,
./images_beh/Sphere_Ref_BG-grey_stim-white.png,0,11,11,11,15.919070154952351,,,,,,,,,,15.872127397975419,15.919070154952351,15.919070154952351,16.65368667896837,16.66395808797097,16.821523829945363,['space'],0,0.6108489199541509,None,,,sub-sepehr,ses-main-base-z-1,run-1,grey,2024-04-25_11h50.24.269,VDT,2023.2.3,120.20974821185203,2024-04-25 11h51.17.037596 +0200,
./images_beh/Sphere_CCW-1.5_BG-grey_stim-white.png,0,12,12,12,16.867813883000053,,,,,,,,,,16.822360996971838,16.90349915099796,16.90349915099796,17.653785386995878,17.64660458295839,17.847299632965587,None,0,,,,,sub-sepehr,ses-main-base-z-1,run-1,grey,2024-04-25_11h50.24.269,VDT,2023.2.3,120.20974821185203,2024-04-25 11h51.17.037596 +0200,
./images_beh/Sphere_CW-1.5_BG-grey_stim-white.png,0,13,13,13,17.891398720967118,,,,,,,,,,17.848453134996817,17.901517930964474,17.901517930964474,18.653708101948723,18.646505729993805,18.84745431895135,None,0,,,,,sub-sepehr,ses-main-base-z-1,run-1,grey,2024-04-25_11h50.24.269,VDT,2023.2.3,120.20974821185203,2024-04-25 11h51.17.037596 +0200,
./images_beh/Sphere_CCW-1.5_BG-grey_stim-white.png,0,14,14,14,18.896447962964885,,,,,,,,,,18.84831570094684,18.912490163987968,18.912490163987968,19.652440018951893,19.652440018951893,19.83606795198284,None,0,,,,,sub-sepehr,ses-main-base-z-1,run-1,grey,2024-04-25_11h50.24.269,VDT,2023.2.3,120.20974821185203,2024-04-25 11h51.17.037596 +0200,
./images_beh/Sphere_CW-1.5_BG-grey_stim-white.png,0,15,15,15,19.883054001955315,,,,,,,,,,19.836799907963723,19.9010954760015,19.9010954760015,20.651885542960372,20.645428696996532,20.846324106969405,None,0,,,,,sub-sepehr,ses-main-base-z-1,run-1,grey,2024-04-25_11h50.24.269,VDT,2023.2.3,120.20974821185203,2024-04-25 11h51.17.037596 +0200,
./images_beh/Sphere_CCW-1.5_BG-grey_stim-white.png,0,16,16,16,20.89232300099684,,,,,,,,,,20.847185058984905,20.91721372900065,20.91721372900065,21.661356662982143,21.66803484997945,21.895755073986948,None,0,,,,,sub-sepehr,ses-main-base-z-1,run-1,grey,2024-04-25_11h50.24.269,VDT,2023.2.3,120.20974821185203,2024-04-25 11h51.17.037596 +0200,
./images_beh/Sphere_CCW-1.5_BG-grey_stim-white.png,0,17,17,17,21.94599240500247,,,,,,,,,,21.89664481196087,21.94599240500247,21.94599240500247,22.660817174997646,22.693956656963564,22.845755581976846,None,0,,,,,sub-sepehr,ses-main-base-z-1,run-1,grey,2024-04-25_11h50.24.269,VDT,2023.2.3,120.20974821185203,2024-04-25 11h51.17.037596 +0200,
./images_beh/Sphere_CCW-1.5_BG-grey_stim-white.png,0,18,18,18,22.893576839996967,,,,,,,,,,22.84656316199107,22.910538088995963,22.910538088995963,23.66052244597813,23.650037143961526,23.85204237594735,None,0,,,,,sub-sepehr,ses-main-base-z-1,run-1,grey,2024-04-25_11h50.24.269,VDT,2023.2.3,120.20974821185203,2024-04-25 11h51.17.037596 +0200,
./images_beh/Sphere_CW-1.5_BG-grey_stim-white.png,0,19,19,19,23.89983512298204,,,,,,,,,,23.852782039961312,23.910127240989823,23.910127240989823,24.65997316595167,24.65997316595167,24.88430423400132,None,0,,,,,sub-sepehr,ses-main-base-z-1,run-1,grey,2024-04-25_11h50.24.269,VDT,2023.2.3,120.20974821185203,2024-04-25 11h51.17.037596 +0200,
./images_beh/Sphere_Ref_BG-grey_stim-white.png,0,20,20,20,24.931996983999852,,,,,,,,,,24.885042657959275,24.931996983999852,24.931996983999852,25.65937552996911,25.676040088990703,25.91046747699147,['space'],0,0.629855576029513,None,25.89888761896873,,sub-sepehr,ses-main-base-z-1,run-1,grey,2024-04-25_11h50.24.269,VDT,2023.2.3,120.20974821185203,2024-04-25 11h51.17.037596 +0200,
./images_beh/Sphere_CCW-1.5_BG-grey_stim-white.png,0,21,21,21,25.95735518098809,,,,,,,,,,25.911768857971765,25.95735518098809,25.95735518098809,26.658967042982113,26.698038066970184,26.826954306976404,None,0,,,,,sub-sepehr,ses-main-base-z-1,run-1,grey,2024-04-25_11h50.24.269,VDT,2023.2.3,120.20974821185203,2024-04-25 11h51.17.037596 +0200,
./images_beh/Sphere_CCW-1.5_BG-grey_stim-white.png,0,22,22,22,26.874372501973994,,,,,,,,,,26.827750939992256,26.908853161963634,26.908853161963634,27.658316012995783,27.64721289096633,27.947900165978353,None,0,,,27.897166769951582,27.897166769951582,sub-sepehr,ses-main-base-z-1,run-1,grey,2024-04-25_11h50.24.269,VDT,2023.2.3,120.20974821185203,2024-04-25 11h51.17.037596 +0200,
./images_beh/Sphere_CW-1.5_BG-grey_stim-white.png,0,23,23,23,27.998989822983276,,,,,,,,,,27.949280248954892,27.998989822983276,27.998989822983276,28.666004850994796,28.74105570296524,28.858399586984888,None,0,,,,,sub-sepehr,ses-main-base-z-1,run-1,grey,2024-04-25_11h50.24.269,VDT,2023.2.3,120.20974821185203,2024-04-25 11h51.17.037596 +0200,
./images_beh/Sphere_CW-1.5_BG-grey_stim-white.png,0,24,24,24,28.903444859955925,,,,,,,,,,28.859586267964914,28.908383533998858,28.908383533998858,29.657518507970963,29.646924807981122,29.85818774497602,None,0,,,,,sub-sepehr,ses-main-base-z-1,run-1,grey,2024-04-25_11h50.24.269,VDT,2023.2.3,120.20974821185203,2024-04-25 11h51.17.037596 +0200,
./images_beh/Sphere_CCW-1.5_BG-grey_stim-white.png,0,25,25,25,29.902703029976692,,,,,,,,,,29.85899330995744,29.90763055899879,29.90763055899879,30.65687419299502,30.646744507947005,30.841479587950744,None,0,,,,,sub-sepehr,ses-main-base-z-1,run-1,grey,2024-04-25_11h50.24.269,VDT,2023.2.3,120.20974821185203,2024-04-25 11h51.17.037596 +0200,
./images_beh/Sphere_Ref_BG-grey_stim-white.png,0,26,26,26,30.887292537954636,,,,,,,,,,30.842275934992358,30.91221770795528,30.91221770795528,31.660694516962394,31.655594479991123,31.857048328965902,['space'],0,0.6010398280341178,None,,,sub-sepehr,ses-main-base-z-1,run-1,grey,2024-04-25_11h50.24.269,VDT,2023.2.3,120.20974821185203,2024-04-25 11h51.17.037596 +0200,
./images_beh/Sphere_CCW-1.5_BG-grey_stim-white.png,0,27,27,27,31.901615707960445,,,,,,,,,,31.858272925950587,31.906757793971337,31.906757793971337,32.662281864963006,32.64508677297272,32.85693673498463,None,0,,,,,sub-sepehr,ses-main-base-z-1,run-1,grey,2024-04-25_11h50.24.269,VDT,2023.2.3,120.20974821185203,2024-04-25 11h51.17.037596 +0200,
./images_beh/Sphere_CW-1.5_BG-grey_stim-white.png,0,28,28,28,32.90608986798907,,,,,,,,,,32.857715437945444,32.91156948998105,32.91156948998105,33.65552026295336,33.65552026295336,33.846465515962336,None,0,,,,,sub-sepehr,ses-main-base-z-1,run-1,grey,2024-04-25_11h50.24.269,VDT,2023.2.3,120.20974821185203,2024-04-25 11h51.17.037596 +0200,
./images_beh/Sphere_Ref_BG-grey_stim-white.png,0,29,29,29,33.8943080889876,,,,,,,,,,33.847196399990935,33.910787496948615,33.910787496948615,34.66046348499367,34.65453353896737,34.89586440694984,['space'],0,0.6749570270185359,None,,,sub-sepehr,ses-main-base-z-1,run-1,grey,2024-04-25_11h50.24.269,VDT,2023.2.3,120.20974821185203,2024-04-25 11h51.17.037596 +0200,
./images_beh/Sphere_CW-1.5_BG-grey_stim-white.png,0,30,30,30,34.93959984998219,,,,,,,,,,34.89664540695958,34.93959984998219,34.93959984998219,35.670901817968115,35.6898598279804,35.87762314896099,None,0,,,,,sub-sepehr,ses-main-base-z-1,run-1,grey,2024-04-25_11h50.24.269,VDT,2023.2.3,120.20974821185203,2024-04-25 11h51.17.037596 +0200,
./images_beh/Sphere_CCW-1.5_BG-grey_stim-white.png,0,31,31,31,35.92567529599182,,,,,,,,,,35.878402503964026,35.92567529599182,35.92567529599182,36.67062742996495,36.678008052986115,36.89505781297339,None,0,,,,,sub-sepehr,ses-main-base-z-1,run-1,grey,2024-04-25_11h50.24.269,VDT,2023.2.3,120.20974821185203,2024-04-25 11h51.17.037596 +0200,
./images_beh/Sphere_Ref_BG-grey_stim-white.png,0,32,32,32,36.945232078956906,,,,,,,,,,36.89579113398213,36.945232078956906,36.945232078956906,37.671129840950016,37.693024633976165,37.89161236694781,['space'],0,0.6890621610218659,None,,,sub-sepehr,ses-main-base-z-1,run-1,grey,2024-04-25_11h50.24.269,VDT,2023.2.3,120.20974821185203,2024-04-25 11h51.17.037596 +0200,
./images_beh/Sphere_CW-1.5_BG-grey_stim-white.png,0,33,33,33,37.92662060097791,,,,,,,,,,37.89199879899388,37.92662060097791,37.92662060097791,38.67024710995611,38.6773591619567,38.87739535694709,None,0,,,,,sub-sepehr,ses-main-base-z-1,run-1,grey,2024-04-25_11h50.24.269,VDT,2023.2.3,120.20974821185203,2024-04-25 11h51.17.037596 +0200,
./images_beh/Sphere_CCW-1.5_BG-grey_stim-white.png,0,34,34,34,38.92418640694814,,,,,,,,,,38.8780800269451,38.92418640694814,38.92418640694814,39.6602576119476,39.669051770993974,39.88660921296105,None,0,,,,,sub-sepehr,ses-main-base-z-1,run-1,grey,2024-04-25_11h50.24.269,VDT,2023.2.3,120.20974821185203,2024-04-25 11h51.17.037596 +0200,
./images_beh/Sphere_CW-1.5_BG-grey_stim-white.png,0,35,35,35,39.93030985695077,,,,,,,,,,39.887277425965294,39.93030985695077,39.93030985695077,40.659321562969126,40.67552868096391,40.82188346097246,None,0,,,,,sub-sepehr,ses-main-base-z-1,run-1,grey,2024-04-25_11h50.24.269,VDT,2023.2.3,120.20974821185203,2024-04-25 11h51.17.037596 +0200,
./images_beh/Sphere_CCW-1.5_BG-grey_stim-white.png,0,36,36,36,40.8686840859591,,,,,,,,,,40.82264541997574,40.90789902099641,40.90789902099641,41.656856882967986,41.651058153947815,41.88582403596956,None,0,,,,,sub-sepehr,ses-main-base-z-1,run-1,grey,2024-04-25_11h50.24.269,VDT,2023.2.3,120.20974821185203,2024-04-25 11h51.17.037596 +0200,
./images_beh/Sphere_CCW-1.5_BG-grey_stim-white.png,0,37,37,37,41.93027293297928,,,,,,,,,,41.886472935962956,41.93027293297928,41.93027293297928,42.65799384500133,42.67357327399077,42.85239558696048,None,0,,,,,sub-sepehr,ses-main-base-z-1,run-1,grey,2024-04-25_11h50.24.269,VDT,2023.2.3,120.20974821185203,2024-04-25 11h51.17.037596 +0200,
./images_beh/Sphere_CW-1.5_BG-grey_stim-white.png,0,38,38,38,42.89894793694839,,,,,,,,,,42.853204275947064,42.90418195800157,42.90418195800157,43.658815415983554,43.65026942797704,43.93432651599869,None,0,,,43.90573176200269,43.90041437797481,sub-sepehr,ses-main-base-z-1,run-1,grey,2024-04-25_11h50.24.269,VDT,2023.2.3,120.20974821185203,2024-04-25 11h51.17.037596 +0200,
./images_beh/Sphere_Ref_BG-grey_stim-white.png,0,39,39,39,43.98333368799649,,,,,,,,,,43.93544979096623,43.98333368799649,43.98333368799649,44.65454406797653,44.72041434299899,44.856418893963564,['space'],0,0.49838995502796024,None,,,sub-sepehr,ses-main-base-z-1,run-1,grey,2024-04-25_11h50.24.269,VDT,2023.2.3,120.20974821185203,2024-04-25 11h51.17.037596 +0200,
./images_beh/Sphere_CCW-1.5_BG-grey_stim-white.png,0,40,40,40,44.90252284100279,,,,,,,,,,44.85718461795477,44.9159895949997,44.9159895949997,45.65648254699772,45.65648254699772,45.850225286965724,None,0,,,,,sub-sepehr,ses-main-base-z-1,run-1,grey,2024-04-25_11h50.24.269,VDT,2023.2.3,120.20974821185203,2024-04-25 11h51.17.037596 +0200,
./images_beh/Sphere_CCW-1.5_BG-grey_stim-white.png,0,41,41,41,45.895360597991385,,,,,,,,,,45.85095063300105,45.90503409894882,45.90503409894882,46.65476608596509,46.64855284197256,46.866542114992626,None,0,,,,,sub-sepehr,ses-main-base-z-1,run-1,grey,2024-04-25_11h50.24.269,VDT,2023.2.3,120.20974821185203,2024-04-25 11h51.17.037596 +0200,
./images_beh/Sphere_Ref_BG-grey_stim-white.png,0,42,42,42,46.913833046972286,,,,,,,,,,46.86751751397969,46.913833046972286,46.913833046972286,47.65913313400233,47.65913313400233,47.86538300500251,['space'],0,0.7277410110109486,None,,,sub-sepehr,ses-main-base-z-1,run-1,grey,2024-04-25_11h50.24.269,VDT,2023.2.3,120.20974821185203,2024-04-25 11h51.17.037596 +0200,
./images_beh/Sphere_CCW-1.5_BG-grey_stim-white.png,0,43,43,43,47.91256336396327,,,,,,,,,,47.86684861598769,47.91256336396327,47.91256336396327,48.654425849963445,48.654425849963445,48.84850866399938,None,0,,,,,sub-sepehr,ses-main-base-z-1,run-1,grey,2024-04-25_11h50.24.269,VDT,2023.2.3,120.20974821185203,2024-04-25 11h51.17.037596 +0200,
./images_beh/Sphere_CW-1.5_BG-grey_stim-white.png,0,44,44,44,48.89493247598875,,,,,,,,,,48.84970715397503,48.91950384195661,48.91950384195661,49.65555967297405,49.663400169985835,49.821553671965376,None,0,,,,,sub-sepehr,ses-main-base-z-1,run-1,grey,2024-04-25_11h50.24.269,VDT,2023.2.3,120.20974821185203,2024-04-25 11h51.17.037596 +0200,
./images_beh/Sphere_CW-1.5_BG-grey_stim-white.png,0,45,45,45,49.86864984600106,,,,,,,,,,49.822588347946294,49.903590976959094,49.903590976959094,50.652312138001435,50.64651581499493,50.85350412200205,None,0,,,,,sub-sepehr,ses-main-base-z-1,run-1,grey,2024-04-25_11h50.24.269,VDT,2023.2.3,120.20974821185203,2024-04-25 11h51.17.037596 +0200,
./images_beh/Sphere_CW-1.5_BG-grey_stim-white.png,0,46,46,46,50.89849579898873,,,,,,,,,,50.854344439983834,50.912761189974844,50.912761189974844,51.65261076198658,51.65261076198658,51.8973055529641,None,0,,,51.896127497951966,,sub-sepehr,ses-main-base-z-1,run-1,grey,2024-04-25_11h50.24.269,VDT,2023.2.3,120.20974821185203,2024-04-25 11h51.17.037596 +0200,
./images_beh/Sphere_Ref_BG-grey_stim-white.png,0,47,47,47,51.94360323995352,,,,,,,,,,51.898263125971425,51.94360323995352,51.94360323995352,52.662195589975454,52.684437194955535,52.86890003900044,['space'],0,0.6098802969790995,None,,,sub-sepehr,ses-main-base-z-1,run-1,grey,2024-04-25_11h50.24.269,VDT,2023.2.3,120.20974821185203,2024-04-25 11h51.17.037596 +0200,
./images_beh/Sphere_CW-1.5_BG-grey_stim-white.png,0,48,48,48,52.913175379973836,,,,,,,,,,52.869676035945304,52.913175379973836,52.913175379973836,53.66126252897084,53.66126252897084,53.86239404295338,None,0,,,,,sub-sepehr,ses-main-base-z-1,run-1,grey,2024-04-25_11h50.24.269,VDT,2023.2.3,120.20974821185203,2024-04-25 11h51.17.037596 +0200,
./images_beh/Sphere_CCW-1.5_BG-grey_stim-white.png,0,49,49,49,53.90794497798197,,,,,,,,,,53.86363438999979,53.913444293953944,53.913444293953944,54.66144988097949,54.66144988097949,54.89638226595707,None,0,,,,,sub-sepehr,ses-main-base-z-1,run-1,grey,2024-04-25_11h50.24.269,VDT,2023.2.3,120.20974821185203,2024-04-25 11h51.17.037596 +0200,
./images_beh/Sphere_CCW-1.5_BG-grey_stim-white.png,0,50,50,50,54.945047142973635,,,,,,,,,,54.89716095599579,54.945047142973635,54.945047142973635,55.661103851976804,55.68425829795888,55.83545557898469,None,0,,,,,sub-sepehr,ses-main-base-z-1,run-1,grey,2024-04-25_11h50.24.269,VDT,2023.2.3,120.20974821185203,2024-04-25 11h51.17.037596 +0200,
./images_beh/Sphere_Ref_BG-grey_stim-white.png,0,51,51,51,55.884276936994866,,,,,,,,,,55.83646715199575,55.910752719966695,55.910752719966695,56.659953637979925,56.64822945697233,56.84387656295439,['space'],0,0.579276655043941,None,,,sub-sepehr,ses-main-base-z-1,run-1,grey,2024-04-25_11h50.24.269,VDT,2023.2.3,120.20974821185203,2024-04-25 11h51.17.037596 +0200,
./images_beh/Sphere_CW-1.5_BG-grey_stim-white.png,0,52,52,52,56.8817659469787,,,,,,,,,,56.844806551001966,56.91010335396277,56.91010335396277,57.659674584981985,57.64819483098108,57.89345003099879,None,0,,,,,sub-sepehr,ses-main-base-z-1,run-1,grey,2024-04-25_11h50.24.269,VDT,2023.2.3,120.20974821185203,2024-04-25 11h51.17.037596 +0200,
./images_beh/Sphere_CW-1.5_BG-grey_stim-white.png,0,53,53,53,57.940924738999456,,,,,,,,,,57.8946289299638,57.940924738999456,57.940924738999456,58.659209094999824,58.68264775897842,58.91004140797304,None,0,,,58.9091431919951,,sub-sepehr,ses-main-base-z-1,run-1,grey,2024-04-25_11h50.24.269,VDT,2023.2.3,120.20974821185203,2024-04-25 11h51.17.037596 +0200,
./images_beh/Sphere_CCW-1.5_BG-grey_stim-white.png,0,54,54,54,58.95775645098183,,,,,,,,,,58.91121466597542,58.95775645098183,58.95775645098183,59.65905179496622,59.698342388961464,59.826755211979616,None,0,,,,,sub-sepehr,ses-main-base-z-1,run-1,grey,2024-04-25_11h50.24.269,VDT,2023.2.3,120.20974821185203,2024-04-25 11h51.17.037596 +0200,
./images_beh/Sphere_CCW-1.5_BG-grey_stim-white.png,0,55,55,55,59.87169581296621,,,,,,,,,,59.82738975499524,59.90872996998951,59.90872996998951,60.658556913957,60.64768676395761,60.83156755496748,None,0,,,,,sub-sepehr,ses-main-base-z-1,run-1,grey,2024-04-25_11h50.24.269,VDT,2023.2.3,120.20974821185203,2024-04-25 11h51.17.037596 +0200,
./images_beh/Sphere_CCW-1.5_BG-grey_stim-white.png,0,56,56,56,60.87539412197657,,,,,,,,,,60.83216286095558,60.90824891795637,60.90824891795637,61.65752603497822,61.647279109980445,61.91142985998886,None,0,,,61.910620370996185,61.910620370996185,sub-sepehr,ses-main-base-z-1,run-1,grey,2024-04-25_11h50.24.269,VDT,2023.2.3,120.20974821185203,2024-04-25 11h51.17.037596 +0200,
./images_beh/Sphere_Ref_BG-grey_stim-white.png,0,57,57,57,61.95953974197619,,,,,,,,,,61.91215371596627,61.95953974197619,61.95953974197619,62.657161253970116,62.70665628899587,62.94742857996607,['space'],0,0.6012328620417975,None,62.91054987395182,,sub-sepehr,ses-main-base-z-1,run-1,grey,2024-04-25_11h50.24.269,VDT,2023.2.3,120.20974821185203,2024-04-25 11h51.17.037596 +0200,
./images_beh/Sphere_CW-1.5_BG-grey_stim-white.png,0,58,58,58,62.99806677195011,,,,,,,,,,62.948508802975994,62.99806677195011,62.99806677195011,63.66503188898787,63.73990828898968,63.930617933976464,None,0,,,63.923503163969144,,sub-sepehr,ses-main-base-z-1,run-1,grey,2024-04-25_11h50.24.269,VDT,2023.2.3,120.20974821185203,2024-04-25 11h51.17.037596 +0200,
./images_beh/Sphere_CW-1.5_BG-grey_stim-white.png,0,59,59,59,63.98074138700031,,,,,,,,,,63.931511996954214,63.98074138700031,63.98074138700031,64.66489825298777,64.7227381389821,64.84555484796874,None,0,,,,,sub-sepehr,ses-main-base-z-1,run-1,grey,2024-04-25_11h50.24.269,VDT,2023.2.3,120.20974821185203,2024-04-25 11h51.17.037596 +0200,
./images_beh/Sphere_CCW-1.5_BG-grey_stim-white.png,0,60,60,60,64.887877191999,,,,,,,,,,64.84616956399987,64.91118765994906,64.91118765994906,65.66346786596114,65.66346786596114,65.85686818900285,None,0,,,,,sub-sepehr,ses-main-base-z-1,run-1,grey,2024-04-25_11h50.24.269,VDT,2023.2.3,120.20974821185203,2024-04-25 11h51.17.037596 +0200,
./images_beh/Sphere_Ref_BG-grey_stim-white.png,0,61,61,61,65.90393655997468,,,,,,,,,,65.85767278500134,65.90926218900131,65.90926218900131,66.66140302096028,66.6550635129679,66.83970605098875,['space'],0,0.5645377629552968,None,,,sub-sepehr,ses-main-base-z-1,run-1,grey,2024-04-25_11h50.24.269,VDT,2023.2.3,120.20974821185203,2024-04-25 11h51.17.037596 +0200,
./images_beh/Sphere_CCW-1.5_BG-grey_stim-white.png,0,62,62,62,66.88771231198916,,,,,,,,,,66.84091299399734,66.91036744695157,66.91036744695157,67.65473960299278,67.65473960299278,67.8800872080028,None,0,,,,,sub-sepehr,ses-main-base-z-1,run-1,grey,2024-04-25_11h50.24.269,VDT,2023.2.3,120.20974821185203,2024-04-25 11h51.17.037596 +0200,
./images_beh/Sphere_CW-1.5_BG-grey_stim-white.png,0,63,63,63,67.92789421696216,,,,,,,,,,67.88082355598453,67.92789421696216,67.92789421696216,68.66260548995342,68.67071610799758,68.84373634395888,None,0,,,,,sub-sepehr,ses-main-base-z-1,run-1,grey,2024-04-25_11h50.24.269,VDT,2023.2.3,120.20974821185203,2024-04-25 11h51.17.037596 +0200,
./images_beh/Sphere_Ref_BG-grey_stim-white.png,0,64,64,64,68.88339953997638,,,,,,,,,,68.84423924796283,68.90961035195505,68.90961035195505,69.66017797595123,69.65360962995328,69.82107336894842,['space'],0,0.6040956460055895,None,,,sub-sepehr,ses-main-base-z-1,run-1,grey,2024-04-25_11h50.24.269,VDT,2023.2.3,120.20974821185203,2024-04-25 11h51.17.037596 +0200,
./images_beh/Sphere_CW-1.5_BG-grey_stim-white.png,0,65,65,65,69.86293662694516,,,,,,,,,,69.82203774194932,69.91065409098519,69.91065409098519,70.65961686795345,70.65961686795345,70.88782354397699,None,0,,,,,sub-sepehr,ses-main-base-z-1,run-1,grey,2024-04-25_11h50.24.269,VDT,2023.2.3,120.20974821185203,2024-04-25 11h51.17.037596 +0200,
./images_beh/Sphere_CW-1.5_BG-grey_stim-white.png,0,66,66,66,70.93665183498524,,,,,,,,,,70.888604466978,70.93665183498524,70.93665183498524,71.67262182495324,71.68606179195922,71.8708174469648,None,0,,,,,sub-sepehr,ses-main-base-z-1,run-1,grey,2024-04-25_11h50.24.269,VDT,2023.2.3,120.20974821185203,2024-04-25 11h51.17.037596 +0200,
./images_beh/Sphere_CW-1.5_BG-grey_stim-white.png,0,67,67,67,71.919728947978,,,,,,,,,,71.87160504295025,71.919728947978,71.919728947978,72.65888810699107,72.65888810699107,72.85962102899794,None,0,,,,,sub-sepehr,ses-main-base-z-1,run-1,grey,2024-04-25_11h50.24.269,VDT,2023.2.3,120.20974821185203,2024-04-25 11h51.17.037596 +0200,
./images_beh/Sphere_Ref_BG-grey_stim-white.png,0,68,68,68,72.9042128729634,,,,,,,,,,72.86021570296725,72.91854601498926,72.91854601498926,73.65678381395992,73.65678381395992,73.87619368400192,['space'],0,0.6681164230103604,None,,,sub-sepehr,ses-main-base-z-1,run-1,grey,2024-04-25_11h50.24.269,VDT,2023.2.3,120.20974821185203,2024-04-25 11h51.17.037596 +0200,
./images_beh/Sphere_CCW-1.5_BG-grey_stim-white.png,0,69,69,69,73.9210678289528,,,,,,,,,,73.87701293098507,73.9210678289528,73.9210678289528,74.65998903894797,74.66771988297114,74.88780175795546,None,0,,,,,sub-sepehr,ses-main-base-z-1,run-1,grey,2024-04-25_11h50.24.269,VDT,2023.2.3,120.20974821185203,2024-04-25 11h51.17.037596 +0200,
./images_beh/Sphere_CW-1.5_BG-grey_stim-white.png,0,70,70,70,74.9365864089923,,,,,,,,,,74.88853446795838,74.9365864089923,74.9365864089923,75.65834988298593,75.68400702194776,75.86762942798669,None,0,,,,,sub-sepehr,ses-main-base-z-1,run-1,grey,2024-04-25_11h50.24.269,VDT,2023.2.3,120.20974821185203,2024-04-25 11h51.17.037596 +0200,
./images_beh/Sphere_CCW-1.5_BG-grey_stim-white.png,0,71,71,71,75.90798573195934,,,,,,,,,,75.86854337895056,75.90798573195934,75.90798573195934,76.65727923094528,76.65727923094528,76.85352355299983,None,0,,,,,sub-sepehr,ses-main-base-z-1,run-1,grey,2024-04-25_11h50.24.269,VDT,2023.2.3,120.20974821185203,2024-04-25 11h51.17.037596 +0200,
./images_beh/Sphere_CW-1.5_BG-grey_stim-white.png,0,72,72,72,76.90079110395163,,,,,,,,,,76.85428268898977,76.91644575697137,76.91644575697137,77.6697934709955,77.6697934709955,77.88662962499075,None,0,,,,,sub-sepehr,ses-main-base-z-1,run-1,grey,2024-04-25_11h50.24.269,VDT,2023.2.3,120.20974821185203,2024-04-25 11h51.17.037596 +0200,
./images_beh/Sphere_CW-1.5_BG-grey_stim-white.png,0,73,73,73,77.93506321596215,,,,,,,,,,77.88741034996929,77.93506321596215,77.93506321596215,78.65631159994518,78.68228690000251,78.85680930997478,None,0,,,,,sub-sepehr,ses-main-base-z-1,run-1,grey,2024-04-25_11h50.24.269,VDT,2023.2.3,120.20974821185203,2024-04-25 11h51.17.037596 +0200,
./images_beh/Sphere_CCW-1.5_BG-grey_stim-white.png,0,74,74,74,78.9012070769677,,,,,,,,,,78.85755347198574,78.91527458099881,78.91527458099881,79.6555112459464,79.6555112459464,79.82253494497854,None,0,,,,,sub-sepehr,ses-main-base-z-1,run-1,grey,2024-04-25_11h50.24.269,VDT,2023.2.3,120.20974821185203,2024-04-25 11h51.17.037596 +0200,
./images_beh/Sphere_CW-1.5_BG-grey_stim-white.png,0,75,75,75,79.86625940498197,,,,,,,,,,79.82337867596652,79.90479164599674,79.90479164599674,80.65384056494804,80.64793920097873,80.86503430397715,None,0,,,,,sub-sepehr,ses-main-base-z-1,run-1,grey,2024-04-25_11h50.24.269,VDT,2023.2.3,120.20974821185203,2024-04-25 11h51.17.037596 +0200,
./images_beh/Sphere_Ref_BG-grey_stim-white.png,0,76,76,76,80.90190954698483,,,,,,,,,,80.86587919294834,80.90190954698483,80.90190954698483,81.65269862796413,81.64708152198,81.88157692097593,['space'],0,0.5232062860159203,None,,,sub-sepehr,ses-main-base-z-1,run-1,grey,2024-04-25_11h50.24.269,VDT,2023.2.3,120.20974821185203,2024-04-25 11h51.17.037596 +0200,
./images_beh/Sphere_CW-1.5_BG-grey_stim-white.png,0,77,77,77,81.92807853099657,,,,,,,,,,81.8829226619564,81.92807853099657,81.92807853099657,82.65490261599189,82.66947146499297,82.85513825097587,None,0,,,,,sub-sepehr,ses-main-base-z-1,run-1,grey,2024-04-25_11h50.24.269,VDT,2023.2.3,120.20974821185203,2024-04-25 11h51.17.037596 +0200,
./images_beh/Sphere_CCW-1.5_BG-grey_stim-white.png,0,78,78,78,82.9030151659972,,,,,,,,,,82.85587873496115,82.91338929597987,82.91338929597987,83.65347015298903,83.65347015298903,83.86398873996222,None,0,,,,,sub-sepehr,ses-main-base-z-1,run-1,grey,2024-04-25_11h50.24.269,VDT,2023.2.3,120.20974821185203,2024-04-25 11h51.17.037596 +0200,
./images_beh/Sphere_Ref_BG-grey_stim-white.png,0,79,79,79,83.91184930800227,,,,,,,,,,83.86523230595049,83.91184930800227,83.91184930800227,84.65283389599063,84.65283389599063,84.86972460796824,None,0,,,,,sub-sepehr,ses-main-base-z-1,run-1,grey,2024-04-25_11h50.24.269,VDT,2023.2.3,120.20974821185203,2024-04-25 11h51.17.037596 +0200,
./images_beh/Sphere_CCW-1.5_BG-grey_stim-white.png,0,80,80,80,84.913237576955,,,,,,,,,,84.87032452895073,84.913237576955,84.913237576955,85.66163172497181,85.66163172497181,85.86820718698436,None,0,,,,,sub-sepehr,ses-main-base-z-1,run-1,grey,2024-04-25_11h50.24.269,VDT,2023.2.3,120.20974821185203,2024-04-25 11h51.17.037596 +0200,
./images_beh/Sphere_CCW-1.5_BG-grey_stim-white.png,0,81,81,81,85.92430457595037,,,,,,,,,,85.86877662397455,85.92430457595037,85.92430457595037,86.66140458395239,86.66717673797393,86.86240534996614,None,0,,,,,sub-sepehr,ses-main-base-z-1,run-1,grey,2024-04-25_11h50.24.269,VDT,2023.2.3,120.20974821185203,2024-04-25 11h51.17.037596 +0200,
./images_beh/Sphere_Ref_BG-grey_stim-white.png,0,82,82,82,86.90570847695926,,,,,,,,,,86.86342176498147,86.91058926598635,86.91058926598635,87.66076042799978,87.648673838994,87.87865048495587,['space'],0,0.4830956809455529,None,,,sub-sepehr,ses-main-base-z-1,run-1,grey,2024-04-25_11h50.24.269,VDT,2023.2.3,120.20974821185203,2024-04-25 11h51.17.037596 +0200,
./images_beh/Sphere_CW-1.5_BG-grey_stim-white.png,0,83,83,83,87.9256506099482,,,,,,,,,,87.87984492396936,87.9256506099482,87.9256506099482,88.66353788296692,88.67947745899437,88.89499740896281,None,0,,,,,sub-sepehr,ses-main-base-z-1,run-1,grey,2024-04-25_11h50.24.269,VDT,2023.2.3,120.20974821185203,2024-04-25 11h51.17.037596 +0200,
./images_beh/Sphere_CCW-1.5_BG-grey_stim-white.png,0,84,84,84,88.9440309269703,,,,,,,,,,88.8960016349447,88.9440309269703,88.9440309269703,89.66099934995873,89.68458446295699,89.84666485094931,None,0,,,,,sub-sepehr,ses-main-base-z-1,run-1,grey,2024-04-25_11h50.24.269,VDT,2023.2.3,120.20974821185203,2024-04-25 11h51.17.037596 +0200,
./images_beh/Sphere_Ref_BG-grey_stim-white.png,0,85,85,85,89.89201014098944,,,,,,,,,,89.84745235799346,89.90998068498448,89.90998068498448,90.6591463109944,90.64840744098183,90.86534104595194,['space'],0,0.5716284340014681,None,,,sub-sepehr,ses-main-base-z-1,run-1,grey,2024-04-25_11h50.24.269,VDT,2023.2.3,120.20974821185203,2024-04-25 11h51.17.037596 +0200,
./images_beh/Sphere_CCW-1.5_BG-grey_stim-white.png,0,86,86,86,90.90433138195658,,,,,,,,,,90.86591017298633,90.90433138195658,90.90433138195658,91.65925241599325,91.64839430799475,91.86630731698824,None,0,,,,,sub-sepehr,ses-main-base-z-1,run-1,grey,2024-04-25_11h50.24.269,VDT,2023.2.3,120.20974821185203,2024-04-25 11h51.17.037596 +0200,
./images_beh/Sphere_CW-1.5_BG-grey_stim-white.png,0,87,87,87,91.91081906395266,,,,,,,,,,91.86692093295278,91.91081906395266,91.91081906395266,92.65860409894958,92.65860409894958,92.91568420198746,None,0,,,92.90899556595832,92.90899556595832,sub-sepehr,ses-main-base-z-1,run-1,grey,2024-04-25_11h50.24.269,VDT,2023.2.3,120.20974821185203,2024-04-25 11h51.17.037596 +0200,
./images_beh/Sphere_CCW-1.5_BG-grey_stim-white.png,0,88,88,88,92.96594352595275,,,,,,,,,,92.916692854953,92.96594352595275,92.96594352595275,93.6582087619463,93.70822463399963,93.83276426995872,None,0,,,,,sub-sepehr,ses-main-base-z-1,run-1,grey,2024-04-25_11h50.24.269,VDT,2023.2.3,120.20974821185203,2024-04-25 11h51.17.037596 +0200,
./images_beh/Sphere_CW-1.5_BG-grey_stim-white.png,0,89,89,89,93.87767827196512,,,,,,,,,,93.833370127948,93.90791238099337,93.90791238099337,94.6578400679864,94.64656607300276,94.8445202820003,None,0,,,,,sub-sepehr,ses-main-base-z-1,run-1,grey,2024-04-25_11h50.24.269,VDT,2023.2.3,120.20974821185203,2024-04-25 11h51.17.037596 +0200,
./images_beh/Sphere_CW-1.5_BG-grey_stim-white.png,0,90,90,90,94.88971184496768,,,,,,,,,,94.84534025000175,94.91375738696661,94.91375738696661,95.65707841195399,95.65707841195399,95.89577604399528,None,0,,,95.89522611699067,,sub-sepehr,ses-main-base-z-1,run-1,grey,2024-04-25_11h50.24.269,VDT,2023.2.3,120.20974821185203,2024-04-25 11h51.17.037596 +0200,
./images_beh/Sphere_CCW-1.5_BG-grey_stim-white.png,0,91,91,91,95.93360222299816,,,,,,,,,,95.89621912298026,95.93360222299816,95.93360222299816,96.67551663395716,96.69256804097677,96.8745729289949,None,0,,,,,sub-sepehr,ses-main-base-z-1,run-1,grey,2024-04-25_11h50.24.269,VDT,2023.2.3,120.20974821185203,2024-04-25 11h51.17.037596 +0200,
./images_beh/Sphere_Ref_BG-grey_stim-white.png,0,92,92,92,96.922699609946,,,,,,,,,,96.87538964796113,96.922699609946,96.922699609946,97.6559370769537,97.66319992596982,97.92324181494769,None,0,,,97.89558650396066,97.91258809797,sub-sepehr,ses-main-base-z-1,run-1,grey,2024-04-25_11h50.24.269,VDT,2023.2.3,120.20974821185203,2024-04-25 11h51.17.037596 +0200,
./images_beh/Sphere_CCW-1.5_BG-grey_stim-white.png,0,93,93,93,97.96594176499639,,,,,,,,,,97.92397505498957,97.96594176499639,97.96594176499639,98.65578087198082,98.71263452299172,98.87305166799342,None,0,,,,,sub-sepehr,ses-main-base-z-1,run-1,grey,2024-04-25_11h50.24.269,VDT,2023.2.3,120.20974821185203,2024-04-25 11h51.17.037596 +0200,
./images_beh/Sphere_CW-1.5_BG-grey_stim-white.png,0,94,94,94,98.92110090894857,,,,,,,,,,98.87399662495591,98.92110090894857,98.92110090894857,99.67181977897417,99.67181977897417,99.82971376995556,None,0,,,,,sub-sepehr,ses-main-base-z-1,run-1,grey,2024-04-25_11h50.24.269,VDT,2023.2.3,120.20974821185203,2024-04-25 11h51.17.037596 +0200,
./images_beh/Sphere_CCW-1.5_BG-grey_stim-white.png,0,95,95,95,99.87449829594698,,,,,,,,,,99.83044489700114,99.91210402100114,99.91210402100114,100.67125165299512,100.67125165299512,100.84599496796727,None,0,,,,,sub-sepehr,ses-main-base-z-1,run-1,grey,2024-04-25_11h50.24.269,VDT,2023.2.3,120.20974821185203,2024-04-25 11h51.17.037596 +0200,
./images_beh/Sphere_CCW-1.5_BG-grey_stim-white.png,0,96,96,96,100.89357463800116,,,,,,,,,,100.8467355609755,100.91069005796453,100.91069005796453,101.66204982798081,101.65435490600066,101.8718644179753,None,0,,,,,sub-sepehr,ses-main-base-z-1,run-1,grey,2024-04-25_11h50.24.269,VDT,2023.2.3,120.20974821185203,2024-04-25 11h51.17.037596 +0200,
./images_beh/Sphere_Ref_BG-grey_stim-white.png,0,97,97,97,101.92135414900258,,,,,,,,,,101.87308429100085,101.92135414900258,101.92135414900258,102.66111300699413,102.66999907599529,102.85442305298056,['space'],0,0.5439951790031046,None,,,sub-sepehr,ses-main-base-z-1,run-1,grey,2024-04-25_11h50.24.269,VDT,2023.2.3,120.20974821185203,2024-04-25 11h51.17.037596 +0200,
./images_beh/Sphere_CCW-1.5_BG-grey_stim-white.png,0,98,98,98,102.89726598496782,,,,,,,,,,102.85536271799356,102.90248720895033,102.90248720895033,103.67259939596988,103.64252194599248,103.88962010695832,None,0,,,,,sub-sepehr,ses-main-base-z-1,run-1,grey,2024-04-25_11h50.24.269,VDT,2023.2.3,120.20974821185203,2024-04-25 11h51.17.037596 +0200,
./images_beh/Sphere_CW-1.5_BG-grey_stim-white.png,0,99,99,99,103.9378834659583,,,,,,,,,,103.89036171196494,103.9378834659583,103.9378834659583,104.6614436559612,104.68584696494509,104.9034841589746,None,0,,,,,sub-sepehr,ses-main-base-z-1,run-1,grey,2024-04-25_11h50.24.269,VDT,2023.2.3,120.20974821185203,2024-04-25 11h51.17.037596 +0200,
./images_beh/Sphere_Ref_BG-grey_stim-white.png,0,100,100,100,104.95001507300185,,,,,,,,,,104.90444474999094,104.95001507300185,104.95001507300185,105.6599268099526,105.69178293197183,105.87669692898635,['space'],0,0.5390726160258055,None,,,sub-sepehr,ses-main-base-z-1,run-1,grey,2024-04-25_11h50.24.269,VDT,2023.2.3,120.20974821185203,2024-04-25 11h51.17.037596 +0200,
./images_beh/Sphere_CW-1.5_BG-grey_stim-white.png,0,101,101,101,105.92097440396901,,,,,,,,,,105.87755740794819,105.92097440396901,105.92097440396901,106.6682983499486,106.6682983499486,106.85857056395616,None,0,,,,,sub-sepehr,ses-main-base-z-1,run-1,grey,2024-04-25_11h50.24.269,VDT,2023.2.3,120.20974821185203,2024-04-25 11h51.17.037596 +0200,
./images_beh/Sphere_CW-1.5_BG-grey_stim-white.png,0,102,102,102,106.90623469295679,,,,,,,,,,106.85921747295652,106.91745566797908,106.91745566797908,107.65847529296298,107.65847529296298,107.85057782096555,None,0,,,,,sub-sepehr,ses-main-base-z-1,run-1,grey,2024-04-25_11h50.24.269,VDT,2023.2.3,120.20974821185203,2024-04-25 11h51.17.037596 +0200,
./images_beh/Sphere_Ref_BG-grey_stim-white.png,0,103,103,103,107.8831927839783,,,,,,,,,,107.85110415297095,107.90602592099458,107.90602592099458,108.65626430697739,108.65018985496135,108.8746695239679,['space'],0,0.6800636799889617,None,,,sub-sepehr,ses-main-base-z-1,run-1,grey,2024-04-25_11h50.24.269,VDT,2023.2.3,120.20974821185203,2024-04-25 11h51.17.037596 +0200,
./images_beh/Sphere_CW-1.5_BG-grey_stim-white.png,0,104,104,104,108.92345540696988,,,,,,,,,,108.87580195599003,108.92345540696988,108.92345540696988,109.65843324898742,109.66650894196937,109.8511751969927,None,0,,,,,sub-sepehr,ses-main-base-z-1,run-1,grey,2024-04-25_11h50.24.269,VDT,2023.2.3,120.20974821185203,2024-04-25 11h51.17.037596 +0200,
./images_beh/Sphere_CCW-1.5_BG-grey_stim-white.png,0,105,105,105,109.89730552199762,,,,,,,,,,109.8523980389582,109.90284189296653,109.90284189296653,110.65689901198493,110.64963501895545,110.89123836898943,None,0,,,,,sub-sepehr,ses-main-base-z-1,run-1,grey,2024-04-25_11h50.24.269,VDT,2023.2.3,120.20974821185203,2024-04-25 11h51.17.037596 +0200,
./images_beh/Sphere_CCW-1.5_BG-grey_stim-white.png,0,106,106,106,110.94046492595226,,,,,,,,,,110.89223670394858,110.94046492595226,110.94046492595226,111.6570208799676,111.68242800794542,111.84080265497323,None,0,,,,,sub-sepehr,ses-main-base-z-1,run-1,grey,2024-04-25_11h50.24.269,VDT,2023.2.3,120.20974821185203,2024-04-25 11h51.17.037596 +0200,
./images_beh/Sphere_CW-1.5_BG-grey_stim-white.png,0,107,107,107,111.89028631994734,,,,,,,,,,111.84170985495439,111.90528869396076,111.90528869396076,112.65620177297387,112.64877680997597,112.9183139349916,None,0,,,112.89856019394938,112.89856019394938,sub-sepehr,ses-main-base-z-1,run-1,grey,2024-04-25_11h50.24.269,VDT,2023.2.3,120.20974821185203,2024-04-25 11h51.17.037596 +0200,
./images_beh/Sphere_CW-1.5_BG-grey_stim-white.png,0,108,108,108,112.96466170495842,,,,,,,,,,112.91905542998575,112.96466170495842,112.96466170495842,113.65607856295537,113.70474423497217,113.87240646395367,None,0,,,,,sub-sepehr,ses-main-base-z-1,run-1,grey,2024-04-25_11h50.24.269,VDT,2023.2.3,120.20974821185203,2024-04-25 11h51.17.037596 +0200,
./images_beh/Sphere_CCW-1.5_BG-grey_stim-white.png,0,109,109,109,113.91845503594959,,,,,,,,,,113.87313473195536,113.91845503594959,113.91845503594959,114.65479787398363,114.66415805596625,114.84913087199675,None,0,,,,,sub-sepehr,ses-main-base-z-1,run-1,grey,2024-04-25_11h50.24.269,VDT,2023.2.3,120.20974821185203,2024-04-25 11h51.17.037596 +0200,
./images_beh/Sphere_Ref_BG-grey_stim-white.png,0,110,110,110,114.89617252897006,,,,,,,,,,114.84992499597138,114.90214979095617,114.90214979095617,115.65347026096424,115.64670756296255,115.86405653099064,['space'],0,0.4993274339940399,None,,,sub-sepehr,ses-main-base-z-1,run-1,grey,2024-04-25_11h50.24.269,VDT,2023.2.3,120.20974821185203,2024-04-25 11h51.17.037596 +0200,
./images_beh/Sphere_CW-1.5_BG-grey_stim-white.png,0,111,111,111,115.90820038400125,,,,,,,,,,115.86535673297476,115.90820038400125,115.90820038400125,116.65253087197198,116.65253087197198,116.85495013999753,None,0,,,,,sub-sepehr,ses-main-base-z-1,run-1,grey,2024-04-25_11h50.24.269,VDT,2023.2.3,120.20974821185203,2024-04-25 11h51.17.037596 +0200,
./images_beh/Sphere_CW-1.5_BG-grey_stim-white.png,0,112,112,112,116.90299393294845,,,,,,,,,,116.85568328294903,116.91281603899552,116.91281603899552,117.65270770294592,117.65270770294592,117.8635689719813,None,0,,,,,sub-sepehr,ses-main-base-z-1,run-1,grey,2024-04-25_11h50.24.269,VDT,2023.2.3,120.20974821185203,2024-04-25 11h51.17.037596 +0200,
./images_beh/Sphere_Ref_BG-grey_stim-white.png,0,113,113,113,117.90991325996583,,,,,,,,,,117.86456800799351,117.90991325996583,117.90991325996583,118.66234861599514,118.65080674400087,118.84652044594986,['space'],0,0.6120289590326138,None,,,sub-sepehr,ses-main-base-z-1,run-1,grey,2024-04-25_11h50.24.269,VDT,2023.2.3,120.20974821185203,2024-04-25 11h51.17.037596 +0200,
./images_beh/Sphere_CCW-1.5_BG-grey_stim-white.png,0,114,114,114,118.89481543394504,,,,,,,,,,118.84801613894524,118.91137606895063,118.91137606895063,119.66151789599098,119.65095597994514,119.8786009909818,None,0,,,,,sub-sepehr,ses-main-base-z-1,run-1,grey,2024-04-25_11h50.24.269,VDT,2023.2.3,120.20974821185203,2024-04-25 11h51.17.037596 +0200,
./images_beh/Sphere_CCW-1.5_BG-grey_stim-white.png,0,115,115,115,119.92565692297649,,,,,,,,,,119.87982079596259,119.92565692297649,119.92565692297649,120.6612070419942,120.6682444170001,120.89513304596767,None,0,,,,,sub-sepehr,ses-main-base-z-1,run-1,grey,2024-04-25_11h50.24.269,VDT,2023.2.3,120.20974821185203,2024-04-25 11h51.17.037596 +0200,
./images_beh/Sphere_CCW-1.5_BG-grey_stim-white.png,0,116,116,116,120.94198009796673,,,,,,,,,,120.89621041197097,120.94198009796673,120.94198009796673,121.66020986298099,121.68442893394968,121.84456713096006,None,0,,,,,sub-sepehr,ses-main-base-z-1,run-1,grey,2024-04-25_11h50.24.269,VDT,2023.2.3,120.20974821185203,2024-04-25 11h51.17.037596 +0200,
./images_beh/Sphere_CW-1.5_BG-grey_stim-white.png,0,117,117,117,121.89010253699962,,,,,,,,,,121.84576649498194,121.91005368198967,121.91005368198967,122.66024513595039,122.64927400596207,122.93345024698647,None,0,,,122.89895727596013,122.89895727596013,sub-sepehr,ses-main-base-z-1,run-1,grey,2024-04-25_11h50.24.269,VDT,2023.2.3,120.20974821185203,2024-04-25 11h51.17.037596 +0200,
./images_beh/Sphere_Ref_BG-grey_stim-white.png,0,118,118,118,122.9810889789951,,,,,,,,,,122.93417913396843,122.9810889789951,122.9810889789951,123.65995629900135,123.72550885297824,123.86253226699773,['space'],0,0.5977967510116287,None,,,sub-sepehr,ses-main-base-z-1,run-1,grey,2024-04-25_11h50.24.269,VDT,2023.2.3,120.20974821185203,2024-04-25 11h51.17.037596 +0200,
./images_beh/Sphere_CCW-1.5_BG-grey_stim-white.png,0,119,119,119,123.91020152997226,,,,,,,,,,123.86349496699404,123.92580984497909,123.92580984497909,124.65880353399552,124.6651818639948,124.84950368094724,None,0,,,,,sub-sepehr,ses-main-base-z-1,run-1,grey,2024-04-25_11h50.24.269,VDT,2023.2.3,120.20974821185203,2024-04-25 11h51.17.037596 +0200,
./images_beh/Sphere_CW-1.5_BG-grey_stim-white.png,0,120,120,120,124.89470301795518,,,,,,,,,,124.85021118895384,124.91466295300052,124.91466295300052,125.65839708800195,125.65839708800195,125.85946106095798,None,0,,,,,sub-sepehr,ses-main-base-z-1,run-1,grey,2024-04-25_11h50.24.269,VDT,2023.2.3,120.20974821185203,2024-04-25 11h51.17.037596 +0200,
./images_beh/Sphere_CCW-1.5_BG-grey_stim-white.png,0,121,121,121,125.90653659496456,,,,,,,,,,125.86069384595612,125.9120809439919,125.9120809439919,126.65789701795438,126.65789701795438,126.8980238129734,None,0,,,126.89724358695094,,sub-sepehr,ses-main-base-z-1,run-1,grey,2024-04-25_11h50.24.269,VDT,2023.2.3,120.20974821185203,2024-04-25 11h51.17.037596 +0200,
./images_beh/Sphere_CW-1.5_BG-grey_stim-white.png,0,122,122,122,126.94609247299377,,,,,,,,,,126.89875628094887,126.94609247299377,126.94609247299377,127.65738574898569,127.69071976095438,127.84205033897888,None,0,,,,,sub-sepehr,ses-main-base-z-1,run-1,grey,2024-04-25_11h50.24.269,VDT,2023.2.3,120.20974821185203,2024-04-25 11h51.17.037596 +0200,
./images_beh/Sphere_Ref_BG-grey_stim-white.png,0,123,123,123,127.88734975998523,,,,,,,,,,127.84312260296429,127.90711780596757,127.90711780596757,128.66284495795844,128.64454963000026,128.830614683975,['space'],0,0.5736037680180743,None,,,sub-sepehr,ses-main-base-z-1,run-1,grey,2024-04-25_11h50.24.269,VDT,2023.2.3,120.20974821185203,2024-04-25 11h51.17.037596 +0200,
./images_beh/Sphere_CCW-1.5_BG-grey_stim-white.png,0,124,124,124,128.87179292499786,,,,,,,,,,128.83144166797865,128.91314357495867,128.91314357495867,129.65628451597877,129.65628451597877,129.8742832839489,None,0,,,,,sub-sepehr,ses-main-base-z-1,run-1,grey,2024-04-25_11h50.24.269,VDT,2023.2.3,120.20974821185203,2024-04-25 11h51.17.037596 +0200,
./images_beh/Sphere_CW-1.5_BG-grey_stim-white.png,0,125,125,125,129.92226599698188,,,,,,,,,,129.8754394829739,129.92226599698188,129.92226599698188,130.65594782098196,130.6624485779903,130.9089131009532,None,0,,,130.89502585097216,,sub-sepehr,ses-main-base-z-1,run-1,grey,2024-04-25_11h50.24.269,VDT,2023.2.3,120.20974821185203,2024-04-25 11h51.17.037596 +0200,
./images_beh/Sphere_CCW-1.5_BG-grey_stim-white.png,0,126,126,126,130.9541995819891,,,,,,,,,,130.90965378895635,130.9541995819891,130.9541995819891,131.66242982598487,131.69570585800102,131.8584226629464,None,0,,,,,sub-sepehr,ses-main-base-z-1,run-1,grey,2024-04-25_11h50.24.269,VDT,2023.2.3,120.20974821185203,2024-04-25 11h51.17.037596 +0200,
./images_beh/Sphere_CW-1.5_BG-grey_stim-white.png,0,127,127,127,131.90334741497645,,,,,,,,,,131.8591600349755,131.90861481497996,131.90861481497996,132.65945645194734,132.65422029496403,132.8292062129476,None,0,,,,,sub-sepehr,ses-main-base-z-1,run-1,grey,2024-04-25_11h50.24.269,VDT,2023.2.3,120.20974821185203,2024-04-25 11h51.17.037596 +0200,
./images_beh/Sphere_CW-1.5_BG-grey_stim-white.png,0,128,128,128,132.87770442396868,,,,,,,,,,132.82992979994742,132.91011967899976,132.91011967899976,133.66102327097906,133.65433095098706,133.87201128795277,None,0,,,,,sub-sepehr,ses-main-base-z-1,run-1,grey,2024-04-25_11h50.24.269,VDT,2023.2.3,120.20974821185203,2024-04-25 11h51.17.037596 +0200,
./images_beh/Sphere_Ref_BG-grey_stim-white.png,0,129,129,129,133.91981945099542,,,,,,,,,,133.87295367999468,133.91981945099542,133.91981945099542,134.6592636529822,134.6592636529822,134.87755319598364,['space'],0,0.5695899359998293,None,,,sub-sepehr,ses-main-base-z-1,run-1,grey,2024-04-25_11h50.24.269,VDT,2023.2.3,120.20974821185203,2024-04-25 11h51.17.037596 +0200,
./images_beh/Sphere_CCW-1.5_BG-grey_stim-white.png,0,130,130,130,134.9215195470024,,,,,,,,,,134.87831928598462,134.9215195470024,134.9215195470024,135.65865530096926,135.6693413509638,135.8363438489614,None,0,,,,,sub-sepehr,ses-main-base-z-1,run-1,grey,2024-04-25_11h50.24.269,VDT,2023.2.3,120.20974821185203,2024-04-25 11h51.17.037596 +0200,
./images_beh/Sphere_CW-1.5_BG-grey_stim-white.png,0,131,131,131,135.8697000349639,,,,,,,,,,135.8368505849503,135.90807818400208,135.90807818400208,136.65780585398898,136.65244783298112,136.8419474120019,None,0,,,,,sub-sepehr,ses-main-base-z-1,run-1,grey,2024-04-25_11h50.24.269,VDT,2023.2.3,120.20974821185203,2024-04-25 11h51.17.037596 +0200,
./images_beh/Sphere_CCW-1.5_BG-grey_stim-white.png,0,132,132,132,136.87612539198017,,,,,,,,,,136.84224813897163,136.90803972899448,136.90803972899448,137.6568940039724,137.65180299495114,137.87393053795677,None,0,,,,,sub-sepehr,ses-main-base-z-1,run-1,grey,2024-04-25_11h50.24.269,VDT,2023.2.3,120.20974821185203,2024-04-25 11h51.17.037596 +0200,
./images_beh/Sphere_Ref_BG-grey_stim-white.png,0,133,133,133,137.90920029894914,,,,,,,,,,137.87424074998125,137.91831625596387,137.91831625596387,138.6567375099985,138.6567375099985,138.83526705997065,None,0,,,,,sub-sepehr,ses-main-base-z-1,run-1,grey,2024-04-25_11h50.24.269,VDT,2023.2.3,120.20974821185203,2024-04-25 11h51.17.037596 +0200,
./images_beh/Sphere_CW-1.5_BG-grey_stim-white.png,0,134,134,134,138.86831164796604,,,,,,,,,,138.83569952397374,138.90694643196184,138.90694643196184,139.65837938297773,139.65152316796593,139.88600701099494,None,0,,,,,sub-sepehr,ses-main-base-z-1,run-1,grey,2024-04-25_11h50.24.269,VDT,2023.2.3,120.20974821185203,2024-04-25 11h51.17.037596 +0200,
./images_beh/Sphere_CCW-1.5_BG-grey_stim-white.png,0,135,135,135,139.93243633996462,,,,,,,,,,139.88677591196029,139.93243633996462,139.93243633996462,140.65837956697214,140.6733795600012,140.89079657697584,None,0,,,,,sub-sepehr,ses-main-base-z-1,run-1,grey,2024-04-25_11h50.24.269,VDT,2023.2.3,120.20974821185203,2024-04-25 11h51.17.037596 +0200,
./images_beh/Sphere_CCW-1.5_BG-grey_stim-white.png,0,136,136,136,140.9346093389904,,,,,,,,,,140.8915191629785,140.9346093389904,140.9346093389904,141.65801000996726,141.67409027495887,141.84175641398178,None,0,,,,,sub-sepehr,ses-main-base-z-1,run-1,grey,2024-04-25_11h50.24.269,VDT,2023.2.3,120.20974821185203,2024-04-25 11h51.17.037596 +0200,
./images_beh/Sphere_Ref_BG-grey_stim-white.png,0,137,137,137,141.89015907800058,,,,,,,,,,141.84249309595907,141.90619646100095,141.90619646100095,142.65469423797913,142.6491969889612,142.8329788419651,['space'],0,0.5583114949986339,None,,,sub-sepehr,ses-main-base-z-1,run-1,grey,2024-04-25_11h50.24.269,VDT,2023.2.3,120.20974821185203,2024-04-25 11h51.17.037596 +0200,
./images_beh/Sphere_CCW-1.5_BG-grey_stim-white.png,0,138,138,138,142.8650481409859,,,,,,,,,,142.83359491999727,142.9043652669643,142.9043652669643,143.65383066097274,143.64885382098146,143.88807116897078,None,0,,,,,sub-sepehr,ses-main-base-z-1,run-1,grey,2024-04-25_11h50.24.269,VDT,2023.2.3,120.20974821185203,2024-04-25 11h51.17.037596 +0200,
./images_beh/Sphere_CW-1.5_BG-grey_stim-white.png,0,139,139,139,143.92350500094471,,,,,,,,,,143.8884603859624,143.92350500094471,143.92350500094471,144.6542328169453,144.67050799896242,144.8377749659703,None,0,,,,,sub-sepehr,ses-main-base-z-1,run-1,grey,2024-04-25_11h50.24.269,VDT,2023.2.3,120.20974821185203,2024-04-25 11h51.17.037596 +0200,
./images_beh/Sphere_CW-1.5_BG-grey_stim-white.png,0,140,140,140,144.8742436359753,,,,,,,,,,144.83806077495683,144.9037005819846,144.9037005819846,145.6534857209772,145.64791156799765,145.887275356974,None,0,,,,,sub-sepehr,ses-main-base-z-1,run-1,grey,2024-04-25_11h50.24.269,VDT,2023.2.3,120.20974821185203,2024-04-25 11h51.17.037596 +0200,
./images_beh/Sphere_Ref_BG-grey_stim-white.png,0,141,141,141,145.92455344897462,,,,,,,,,,145.88764523196733,145.92455344897462,145.92455344897462,146.653133580985,146.66928668599576,146.8530559729552,['space'],0,0.6751535520306788,None,,,sub-sepehr,ses-main-base-z-1,run-1,grey,2024-04-25_11h50.24.269,VDT,2023.2.3,120.20974821185203,2024-04-25 11h51.17.037596 +0200,
./images_beh/Sphere_CCW-1.5_BG-grey_stim-white.png,0,142,142,142,146.88672190497164,,,,,,,,,,146.8534702049801,146.9026752069476,146.9026752069476,147.65316019795137,147.64698823698564,147.84784624399617,None,0,,,,,sub-sepehr,ses-main-base-z-1,run-1,grey,2024-04-25_11h50.24.269,VDT,2023.2.3,120.20974821185203,2024-04-25 11h51.17.037596 +0200,
./images_beh/Sphere_CW-1.5_BG-grey_stim-white.png,0,143,143,143,147.88804812397575,,,,,,,,,,147.8487607089919,147.901390710962,147.901390710962,148.65332861494971,148.64671314897714,148.85474218497984,None,0,,,,,sub-sepehr,ses-main-base-z-1,run-1,grey,2024-04-25_11h50.24.269,VDT,2023.2.3,120.20974821185203,2024-04-25 11h51.17.037596 +0200,
./images_beh/Sphere_CCW-1.5_BG-grey_stim-white.png,0,144,144,144,148.90281153598335,,,,,,,,,,148.8554640369839,148.91295441199327,148.91295441199327,149.65259628900094,149.65259628900094,149.85397985298187,None,0,,,,,sub-sepehr,ses-main-base-z-1,run-1,grey,2024-04-25_11h50.24.269,VDT,2023.2.3,120.20974821185203,2024-04-25 11h51.17.037596 +0200,
./images_beh/Sphere_CW-1.5_BG-grey_stim-white.png,0,145,145,145,149.8980784829473,,,,,,,,,,149.8546761299949,149.9125551439938,149.9125551439938,150.65250671899412,150.65250671899412,150.86972677498125,None,0,,,,,sub-sepehr,ses-main-base-z-1,run-1,grey,2024-04-25_11h50.24.269,VDT,2023.2.3,120.20974821185203,2024-04-25 11h51.17.037596 +0200,
./images_beh/Sphere_CW-1.5_BG-grey_stim-white.png,0,146,146,146,150.9165938840015,,,,,,,,,,150.87045390799176,150.9165938840015,150.9165938840015,151.65312808699673,151.6619059999939,151.82939045195235,None,0,,,,,sub-sepehr,ses-main-base-z-1,run-1,grey,2024-04-25_11h50.24.269,VDT,2023.2.3,120.20974821185203,2024-04-25 11h51.17.037596 +0200,
./images_beh/Sphere_CCW-1.5_BG-grey_stim-white.png,0,147,147,147,151.87491004099138,,,,,,,,,,151.8304282699828,151.9116390059935,151.9116390059935,152.66137909097597,152.64969421597198,152.85226509097265,None,0,,,,,sub-sepehr,ses-main-base-z-1,run-1,grey,2024-04-25_11h50.24.269,VDT,2023.2.3,120.20974821185203,2024-04-25 11h51.17.037596 +0200,
./images_beh/Sphere_Ref_BG-grey_stim-white.png,0,148,148,148,152.89834695798345,,,,,,,,,,152.85299851797754,152.91074420895893,152.91074420895893,153.66052514495095,153.64914314600173,153.83408655098174,['space'],0,0.5793344900012016,None,,,sub-sepehr,ses-main-base-z-1,run-1,grey,2024-04-25_11h50.24.269,VDT,2023.2.3,120.20974821185203,2024-04-25 11h51.17.037596 +0200,
./images_beh/Sphere_CCW-1.5_BG-grey_stim-white.png,0,149,149,149,153.87904960097512,,,,,,,,,,153.83485611795913,153.91054478299338,153.91054478299338,154.6603847729857,154.64937239099527,154.89413832797436,None,0,,,,,sub-sepehr,ses-main-base-z-1,run-1,grey,2024-04-25_11h50.24.269,VDT,2023.2.3,120.20974821185203,2024-04-25 11h51.17.037596 +0200,
./images_beh/Sphere_CW-1.5_BG-grey_stim-white.png,0,150,150,150,154.94520016998285,,,,,,,,,,154.89553756295936,154.94520016998285,154.94520016998285,155.66000963299302,155.69318796595326,155.8938594639767,None,0,,,,,sub-sepehr,ses-main-base-z-1,run-1,grey,2024-04-25_11h50.24.269,VDT,2023.2.3,120.20974821185203,2024-04-25 11h51.17.037596 +0200,
./images_beh/Sphere_Ref_BG-grey_stim-white.png,0,151,151,151,155.9391196219949,,,,,,,,,,155.89485908299685,155.9391196219949,155.9391196219949,156.6593021969893,156.6827964319964,156.84566812997218,['space'],0,0.6552938359673135,None,,,sub-sepehr,ses-main-base-z-1,run-1,grey,2024-04-25_11h50.24.269,VDT,2023.2.3,120.20974821185203,2024-04-25 11h51.17.037596 +0200,
./images_beh/Sphere_CCW-1.5_BG-grey_stim-white.png,0,152,152,152,156.8923587600002,,,,,,,,,,156.8466915989993,156.9093044839683,156.9093044839683,157.65902655996615,157.64786137099145,157.89338508696528,None,0,,,,,sub-sepehr,ses-main-base-z-1,run-1,grey,2024-04-25_11h50.24.269,VDT,2023.2.3,120.20974821185203,2024-04-25 11h51.17.037596 +0200,
./images_beh/Sphere_CW-1.5_BG-grey_stim-white.png,0,153,153,153,157.93943110399414,,,,,,,,,,157.89409503299976,157.93943110399414,157.93943110399414,158.6582544099656,158.68259400699753,158.8762001739815,None,0,,,,,sub-sepehr,ses-main-base-z-1,run-1,grey,2024-04-25_11h50.24.269,VDT,2023.2.3,120.20974821185203,2024-04-25 11h51.17.037596 +0200,
./images_beh/Sphere_CW-1.5_BG-grey_stim-white.png,0,154,154,154,158.92542664095527,,,,,,,,,,158.87699124700157,158.92542664095527,158.92542664095527,159.66478937596548,159.66478937596548,159.89219744096044,None,0,,,,,sub-sepehr,ses-main-base-z-1,run-1,grey,2024-04-25_11h50.24.269,VDT,2023.2.3,120.20974821185203,2024-04-25 11h51.17.037596 +0200,
./images_beh/Sphere_Ref_BG-grey_stim-white.png,0,155,155,155,159.9442893389496,,,,,,,,,,159.89312724594492,159.9442893389496,159.9442893389496,160.6643182739499,160.69052551797358,160.8485418399796,['space'],0,0.5775135400472209,None,,,sub-sepehr,ses-main-base-z-1,run-1,grey,2024-04-25_11h50.24.269,VDT,2023.2.3,120.20974821185203,2024-04-25 11h51.17.037596 +0200,
./images_beh/Sphere_CW-1.5_BG-grey_stim-white.png,0,156,156,156,160.89704150299076,,,,,,,,,,160.84958268899936,160.90691363997757,160.90691363997757,161.65665348398034,161.64669560897164,161.8766753889504,None,0,,,,,sub-sepehr,ses-main-base-z-1,run-1,grey,2024-04-25_11h50.24.269,VDT,2023.2.3,120.20974821185203,2024-04-25 11h51.17.037596 +0200,
./images_beh/Sphere_CCW-1.5_BG-grey_stim-white.png,0,157,157,157,161.9259040429606,,,,,,,,,,161.87742466497002,161.9259040429606,161.9259040429606,162.67630238295533,162.67630238295533,162.84108108800137,None,0,,,,,sub-sepehr,ses-main-base-z-1,run-1,grey,2024-04-25_11h50.24.269,VDT,2023.2.3,120.20974821185203,2024-04-25 11h51.17.037596 +0200,
./images_beh/Sphere_CW-1.5_BG-grey_stim-white.png,0,158,158,158,162.88846965198172,,,,,,,,,,162.84208865195978,162.91251788899535,162.91251788899535,163.65565077395877,163.65565077395877,163.9064859249629,None,0,,,163.89450245595071,,sub-sepehr,ses-main-base-z-1,run-1,grey,2024-04-25_11h50.24.269,VDT,2023.2.3,120.20974821185203,2024-04-25 11h51.17.037596 +0200,
./images_beh/Sphere_Ref_BG-grey_stim-white.png,0,159,159,159,163.9528985619545,,,,,,,,,,163.90747834194917,163.9528985619545,163.9528985619545,164.6553244999959,164.69512196298456,164.8392063419451,['space'],0,0.6011708779842593,None,,,sub-sepehr,ses-main-base-z-1,run-1,grey,2024-04-25_11h50.24.269,VDT,2023.2.3,120.20974821185203,2024-04-25 11h51.17.037596 +0200,
./images_beh/Sphere_CCW-1.5_BG-grey_stim-white.png,0,160,160,160,164.8832828339655,,,,,,,,,,164.84027825295925,164.9102558529703,164.9102558529703,165.6588343209587,165.6588343209587,165.87554126000032,None,0,,,,,sub-sepehr,ses-main-base-z-1,run-1,grey,2024-04-25_11h50.24.269,VDT,2023.2.3,120.20974821185203,2024-04-25 11h51.17.037596 +0200,
./images_beh/Sphere_CCW-1.5_BG-grey_stim-white.png,0,161,161,161,165.906456054945,,,,,,,,,,165.87587470398284,165.9203267429839,165.9203267429839,166.65851184399799,166.65851184399799,166.84197767899605,None,0,,,,,sub-sepehr,ses-main-base-z-1,run-1,grey,2024-04-25_11h50.24.269,VDT,2023.2.3,120.20974821185203,2024-04-25 11h51.17.037596 +0200,
./images_beh/Sphere_CCW-1.5_BG-grey_stim-white.png,0,162,162,162,166.87351840897463,,,,,,,,,,166.84229299798608,166.90841559600085,166.90841559600085,167.65886763198068,167.653338021948,167.87018121499568,None,0,,,,,sub-sepehr,ses-main-base-z-1,run-1,grey,2024-04-25_11h50.24.269,VDT,2023.2.3,120.20974821185203,2024-04-25 11h51.17.037596 +0200,
./images_beh/Sphere_CW-1.5_BG-grey_stim-white.png,0,163,163,163,167.91027700796258,,,,,,,,,,167.87076548999175,167.91027700796258,167.91027700796258,168.66084605897777,168.6534618989681,168.83781657699728,None,0,,,,,sub-sepehr,ses-main-base-z-1,run-1,grey,2024-04-25_11h50.24.269,VDT,2023.2.3,120.20974821185203,2024-04-25 11h51.17.037596 +0200,
./images_beh/Sphere_CCW-1.5_BG-grey_stim-white.png,0,164,164,164,168.88695177197224,,,,,,,,,,168.8390295569552,168.90903192898259,168.90903192898259,169.67201315198326,169.65508736099582,169.87705409998307,None,0,,,,,sub-sepehr,ses-main-base-z-1,run-1,grey,2024-04-25_11h50.24.269,VDT,2023.2.3,120.20974821185203,2024-04-25 11h51.17.037596 +0200,
./images_beh/Sphere_CW-1.5_BG-grey_stim-white.png,0,165,165,165,169.92468898597872,,,,,,,,,,169.87777731899405,169.92468898597872,169.92468898597872,170.6601790089626,170.6689730809885,170.85593080398394,None,0,,,,,sub-sepehr,ses-main-base-z-1,run-1,grey,2024-04-25_11h50.24.269,VDT,2023.2.3,120.20974821185203,2024-04-25 11h51.17.037596 +0200,
./images_beh/Sphere_CCW-1.5_BG-grey_stim-white.png,0,166,166,166,170.90191362198675,,,,,,,,,,170.85666607599705,170.90732611599378,170.90732611599378,171.6684822589741,171.6684822589741,171.85334927699296,None,0,,,,,sub-sepehr,ses-main-base-z-1,run-1,grey,2024-04-25_11h50.24.269,VDT,2023.2.3,120.20974821185203,2024-04-25 11h51.17.037596 +0200,
./images_beh/Sphere_Ref_BG-grey_stim-white.png,0,167,167,167,171.8987859049812,,,,,,,,,,171.85453511495143,171.90429615200264,171.90429615200264,172.65796944999602,172.65125375799835,172.9356961369631,['space'],0,0.616488230007235,None,172.92017677094555,172.92017677094555,sub-sepehr,ses-main-base-z-1,run-1,grey,2024-04-25_11h50.24.269,VDT,2023.2.3,120.20974821185203,2024-04-25 11h51.17.037596 +0200,
./images_beh/Sphere_CCW-1.5_BG-grey_stim-white.png,0,168,168,168,172.98399020294892,,,,,,,,,,172.93675491097383,172.98399020294892,172.98399020294892,173.65922925795894,173.72348575096112,173.85859794699354,None,0,,,,,sub-sepehr,ses-main-base-z-1,run-1,grey,2024-04-25_11h50.24.269,VDT,2023.2.3,120.20974821185203,2024-04-25 11h51.17.037596 +0200,
./images_beh/Sphere_CW-1.5_BG-grey_stim-white.png,0,169,169,169,173.90625785494922,,,,,,,,,,173.85939721600153,173.91683656198438,173.91683656198438,174.65714203898096,174.65714203898096,174.858065229957,None,0,,,,,sub-sepehr,ses-main-base-z-1,run-1,grey,2024-04-25_11h50.24.269,VDT,2023.2.3,120.20974821185203,2024-04-25 11h51.17.037596 +0200,
./images_beh/Sphere_Ref_BG-grey_stim-white.png,0,170,170,170,174.90116023895098,,,,,,,,,,174.85866546694888,174.91664022294572,174.91664022294572,175.65524635097245,175.66553809895413,175.90288010495715,['space'],0,0.6767786520067602,None,,,sub-sepehr,ses-main-base-z-1,run-1,grey,2024-04-25_11h50.24.269,VDT,2023.2.3,120.20974821185203,2024-04-25 11h51.17.037596 +0200,
./images_beh/Sphere_CW-1.5_BG-grey_stim-white.png,0,171,171,171,175.95018652797444,,,,,,,,,,175.9038380139973,175.95018652797444,175.95018652797444,176.65760199195938,176.6989800259471,176.8892651849892,None,0,,,,,sub-sepehr,ses-main-base-z-1,run-1,grey,2024-04-25_11h50.24.269,VDT,2023.2.3,120.20974821185203,2024-04-25 11h51.17.037596 +0200,
./images_beh/Sphere_CW-1.5_BG-grey_stim-white.png,0,172,172,172,176.9337099249824,,,,,,,,,,176.8899054149515,176.9337099249824,176.9337099249824,177.65636866400018,177.68205061298795,177.88320111797657,None,0,,,,,sub-sepehr,ses-main-base-z-1,run-1,grey,2024-04-25_11h50.24.269,VDT,2023.2.3,120.20974821185203,2024-04-25 11h51.17.037596 +0200,
./images_beh/Sphere_Ref_BG-grey_stim-white.png,0,173,173,173,177.92881417594617,,,,,,,,,,177.88399919797666,177.92881417594617,177.92881417594617,178.6563769709901,178.6718501689611,178.87257573695388,None,0,,,,,sub-sepehr,ses-main-base-z-1,run-1,grey,2024-04-25_11h50.24.269,VDT,2023.2.3,120.20974821185203,2024-04-25 11h51.17.037596 +0200,
./images_beh/Sphere_CW-1.5_BG-grey_stim-white.png,0,174,174,174,178.92008742596954,,,,,,,,,,178.8733762310003,178.92008742596954,178.92008742596954,179.65469128999393,179.66424742498202,179.8484944809461,None,0,,,,,sub-sepehr,ses-main-base-z-1,run-1,grey,2024-04-25_11h50.24.269,VDT,2023.2.3,120.20974821185203,2024-04-25 11h51.17.037596 +0200,
./images_beh/Sphere_CCW-1.5_BG-grey_stim-white.png,0,175,175,175,179.89017124997918,,,,,,,,,,179.849227366969,179.9027574279462,179.9027574279462,180.65338353795232,180.64714043098502,180.88138347299537,None,0,,,,,sub-sepehr,ses-main-base-z-1,run-1,grey,2024-04-25_11h50.24.269,VDT,2023.2.3,120.20974821185203,2024-04-25 11h51.17.037596 +0200,
./images_beh/Sphere_Ref_BG-grey_stim-white.png,0,176,176,176,180.92891723295907,,,,,,,,,,180.88220968696987,180.92891723295907,180.92891723295907,181.6565354259801,181.67068327299785,181.91872901597526,['space'],0,0.5860538220149465,None,181.90212675294606,181.91787274496164,sub-sepehr,ses-main-base-z-1,run-1,grey,2024-04-25_11h50.24.269,VDT,2023.2.3,120.20974821185203,2024-04-25 11h51.17.037596 +0200,
./images_beh/Sphere_CCW-1.5_BG-grey_stim-white.png,0,177,177,177,181.96209889196325,,,,,,,,,,181.91958799498389,181.96209889196325,181.96209889196325,182.65320829697885,182.70333218894666,182.8803533249884,None,0,,,,,sub-sepehr,ses-main-base-z-1,run-1,grey,2024-04-25_11h50.24.269,VDT,2023.2.3,120.20974821185203,2024-04-25 11h51.17.037596 +0200,
./images_beh/Sphere_CW-1.5_BG-grey_stim-white.png,0,178,178,178,182.9244865399669,,,,,,,,,,182.8811211459688,182.9244865399669,182.9244865399669,183.6532593999873,183.66783873696113,183.84614611999132,None,0,,,,,sub-sepehr,ses-main-base-z-1,run-1,grey,2024-04-25_11h50.24.269,VDT,2023.2.3,120.20974821185203,2024-04-25 11h51.17.037596 +0200,
./images_beh/Sphere_CCW-1.5_BG-grey_stim-white.png,0,179,179,179,183.89371437299997,,,,,,,,,,183.84726872696774,183.91184372099815,183.91184372099815,184.6616593839717,184.65024556894787,184.8790292359772,None,0,,,,,sub-sepehr,ses-main-base-z-1,run-1,grey,2024-04-25_11h50.24.269,VDT,2023.2.3,120.20974821185203,2024-04-25 11h51.17.037596 +0200,
./images_beh/Sphere_CCW-1.5_BG-grey_stim-white.png,0,180,180,180,184.92176623799605,,,,,,,,,,184.87972191697918,184.92176623799605,184.92176623799605,185.6613469439908,185.66796376695856,185.83532129594823,None,0,,,,,sub-sepehr,ses-main-base-z-1,run-1,grey,2024-04-25_11h50.24.269,VDT,2023.2.3,120.20974821185203,2024-04-25 11h51.17.037596 +0200,
./images_beh/Sphere_CW-1.5_BG-grey_stim-white.png,0,181,181,181,185.87942853395361,,,,,,,,,,185.83591625496047,185.9111789529561,185.9111789529561,186.66052368097007,186.6492146809469,186.8450825639884,None,0,,,,,sub-sepehr,ses-main-base-z-1,run-1,grey,2024-04-25_11h50.24.269,VDT,2023.2.3,120.20974821185203,2024-04-25 11h51.17.037596 +0200,
./images_beh/Sphere_CW-1.5_BG-grey_stim-white.png,0,182,182,182,186.88917052099714,,,,,,,,,,186.84572664095322,186.91034006199334,186.91034006199334,187.6602717859787,187.64926663396182,187.85114358499413,None,0,,,,,sub-sepehr,ses-main-base-z-1,run-1,grey,2024-04-25_11h50.24.269,VDT,2023.2.3,120.20974821185203,2024-04-25 11h51.17.037596 +0200,
./images_beh/Sphere_CCW-1.5_BG-grey_stim-white.png,0,183,183,183,187.89634143695002,,,,,,,,,,187.8518840909819,187.9098627989879,187.9098627989879,188.65986238996265,188.6481899409555,188.84395288297674,None,0,,,,,sub-sepehr,ses-main-base-z-1,run-1,grey,2024-04-25_11h50.24.269,VDT,2023.2.3,120.20974821185203,2024-04-25 11h51.17.037596 +0200,
./images_beh/Sphere_CW-1.5_BG-grey_stim-white.png,0,184,184,184,188.8880215289537,,,,,,,,,,188.844668642967,188.90914030297427,188.90914030297427,189.66239905398106,189.66239905398106,189.86035647196695,None,0,,,,,sub-sepehr,ses-main-base-z-1,run-1,grey,2024-04-25_11h50.24.269,VDT,2023.2.3,120.20974821185203,2024-04-25 11h51.17.037596 +0200,
./images_beh/Sphere_CW-1.5_BG-grey_stim-white.png,0,185,185,185,189.90551971795503,,,,,,,,,,189.8611402969691,189.9117980299634,189.9117980299634,190.65893227397464,190.65893227397464,190.89531972497934,None,0,,,,,sub-sepehr,ses-main-base-z-1,run-1,grey,2024-04-25_11h50.24.269,VDT,2023.2.3,120.20974821185203,2024-04-25 11h51.17.037596 +0200,
./images_beh/Sphere_Ref_BG-grey_stim-white.png,0,186,186,186,190.94382720894646,,,,,,,,,,190.89606662496226,190.94382720894646,190.94382720894646,191.658022486954,191.6938888169825,191.88317253399873,['space'],0,0.5214728799764998,None,,,sub-sepehr,ses-main-base-z-1,run-1,grey,2024-04-25_11h50.24.269,VDT,2023.2.3,120.20974821185203,2024-04-25 11h51.17.037596 +0200,
./images_beh/Sphere_CCW-1.5_BG-grey_stim-white.png,0,187,187,187,191.93340690498007,,,,,,,,,,191.88413717597723,191.93340690498007,191.93340690498007,192.65794505696977,192.67431305797072,192.8446102909511,None,0,,,,,sub-sepehr,ses-main-base-z-1,run-1,grey,2024-04-25_11h50.24.269,VDT,2023.2.3,120.20974821185203,2024-04-25 11h51.17.037596 +0200,
./images_beh/Sphere_CW-1.5_BG-grey_stim-white.png,0,188,188,188,192.89023058197927,,,,,,,,,,192.84535197395599,192.91403044795152,192.91403044795152,193.66368712094845,193.66368712094845,193.84821433597244,None,0,,,,,sub-sepehr,ses-main-base-z-1,run-1,grey,2024-04-25_11h50.24.269,VDT,2023.2.3,120.20974821185203,2024-04-25 11h51.17.037596 +0200,
./images_beh/Sphere_Ref_BG-grey_stim-white.png,0,189,189,189,193.89295072498498,,,,,,,,,,193.84882200194988,193.9135779059725,193.9135779059725,194.6564585879678,194.6564585879678,194.85804004699457,['space'],0,0.6874046649900265,None,,,sub-sepehr,ses-main-base-z-1,run-1,grey,2024-04-25_11h50.24.269,VDT,2023.2.3,120.20974821185203,2024-04-25 11h51.17.037596 +0200,
./images_beh/Sphere_CCW-1.5_BG-grey_stim-white.png,0,190,190,190,194.90399576199707,,,,,,,,,,194.8591711879708,194.90926961199148,194.90926961199148,195.656338990957,195.656338990957,195.82591481495183,None,0,,,,,sub-sepehr,ses-main-base-z-1,run-1,grey,2024-04-25_11h50.24.269,VDT,2023.2.3,120.20974821185203,2024-04-25 11h51.17.037596 +0200,
./images_beh/Sphere_CW-1.5_BG-grey_stim-white.png,0,191,191,191,195.8705742500024,,,,,,,,,,195.8266266999999,195.91284918994643,195.91284918994643,196.65588052698877,196.65588052698877,196.89032298600068,None,0,,,,,sub-sepehr,ses-main-base-z-1,run-1,grey,2024-04-25_11h50.24.269,VDT,2023.2.3,120.20974821185203,2024-04-25 11h51.17.037596 +0200,
./images_beh/Sphere_Ref_BG-grey_stim-white.png,0,192,192,192,196.9383309299592,,,,,,,,,,196.89148825296434,196.9383309299592,196.9383309299592,197.6583521339926,197.69096922298195,197.85634110996034,None,0,,,,,sub-sepehr,ses-main-base-z-1,run-1,grey,2024-04-25_11h50.24.269,VDT,2023.2.3,120.20974821185203,2024-04-25 11h51.17.037596 +0200,
./images_beh/Sphere_CW-1.5_BG-grey_stim-white.png,0,193,193,193,197.90327883994905,,,,,,,,,,197.85715703095775,197.90891769598238,197.90891769598238,198.6618124669767,198.6546399849467,198.87965513794916,None,0,,,,,sub-sepehr,ses-main-base-z-1,run-1,grey,2024-04-25_11h50.24.269,VDT,2023.2.3,120.20974821185203,2024-04-25 11h51.17.037596 +0200,
./images_beh/Sphere_CCW-1.5_BG-grey_stim-white.png,0,194,194,194,198.92515104997437,,,,,,,,,,198.88031493796734,198.92515104997437,198.92515104997437,199.66328628198244,199.67082768096589,199.84137055597967,None,0,,,,,sub-sepehr,ses-main-base-z-1,run-1,grey,2024-04-25_11h50.24.269,VDT,2023.2.3,120.20974821185203,2024-04-25 11h51.17.037596 +0200,
./images_beh/Sphere_Ref_BG-grey_stim-white.png,0,195,195,195,199.88748806196963,,,,,,,,,,199.84211766795488,199.9100872319541,199.9100872319541,200.65974957699655,200.65329842094798,200.8541093589738,"['space', 'space']",0,0.27467426302609965,None,,,sub-sepehr,ses-main-base-z-1,run-1,grey,2024-04-25_11h50.24.269,VDT,2023.2.3,120.20974821185203,2024-04-25 11h51.17.037596 +0200,
./images_beh/Sphere_CCW-1.5_BG-grey_stim-white.png,0,196,196,196,200.89181003294652,,,,,,,,,,200.85491800599266,200.9090158509789,200.9090158509789,201.65987516194582,201.65311716595897,201.88955068099312,None,0,,,,,sub-sepehr,ses-main-base-z-1,run-1,grey,2024-04-25_11h50.24.269,VDT,2023.2.3,120.20974821185203,2024-04-25 11h51.17.037596 +0200,
./images_beh/Sphere_CCW-1.5_BG-grey_stim-white.png,0,197,197,197,201.9374839819502,,,,,,,,,,201.89058582595317,201.9374839819502,201.9374839819502,202.66154368099524,202.67682468297426,202.89422552497126,None,0,,,,,sub-sepehr,ses-main-base-z-1,run-1,grey,2024-04-25_11h50.24.269,VDT,2023.2.3,120.20974821185203,2024-04-25 11h51.17.037596 +0200,
./images_beh/Sphere_CCW-1.5_BG-grey_stim-white.png,0,198,198,198,202.94271648896392,,,,,,,,,,202.89524261897895,202.94271648896392,202.94271648896392,203.66055875399616,203.68554318498354,203.85569127794588,None,0,,,,,sub-sepehr,ses-main-base-z-1,run-1,grey,2024-04-25_11h50.24.269,VDT,2023.2.3,120.20974821185203,2024-04-25 11h51.17.037596 +0200,
./images_beh/Sphere_CCW-1.5_BG-grey_stim-white.png,0,199,199,199,203.90145264496095,,,,,,,,,,203.8564222959685,203.90697635198012,203.90697635198012,204.6591558609507,204.65155989996856,204.8426149939769,None,0,,,,,sub-sepehr,ses-main-base-z-1,run-1,grey,2024-04-25_11h50.24.269,VDT,2023.2.3,120.20974821185203,2024-04-25 11h51.17.037596 +0200,
./images_beh/Sphere_Ref_BG-grey_stim-white.png,0,200,200,200,204.8873633959447,,,,,,,,,,204.8432193559711,204.90749557997333,204.90749557997333,205.6569268659805,205.65082267299294,205.85464426496765,['space'],0,0.6138353570131585,None,,,sub-sepehr,ses-main-base-z-1,run-1,grey,2024-04-25_11h50.24.269,VDT,2023.2.3,120.20974821185203,2024-04-25 11h51.17.037596 +0200,
./images_beh/Sphere_CW-1.5_BG-grey_stim-white.png,0,201,201,201,205.9010280709481,,,,,,,,,,205.8556355269975,205.90631791896885,205.90631791896885,206.6674519829685,206.6674519829685,206.89189187897136,None,0,,,,,sub-sepehr,ses-main-base-z-1,run-1,grey,2024-04-25_11h50.24.269,VDT,2023.2.3,120.20974821185203,2024-04-25 11h51.17.037596 +0200,
./images_beh/Sphere_CCW-1.5_BG-grey_stim-white.png,0,202,202,202,206.94324911595322,,,,,,,,,,206.8926105509745,206.94324911595322,206.94324911595322,207.65845718694618,207.68996329198126,207.90124619595008,None,0,,,,,sub-sepehr,ses-main-base-z-1,run-1,grey,2024-04-25_11h50.24.269,VDT,2023.2.3,120.20974821185203,2024-04-25 11h51.17.037596 +0200,
./images_beh/Sphere_Ref_BG-grey_stim-white.png,0,203,203,203,207.94912598095834,,,,,,,,,,207.90205747197615,207.94912598095834,207.94912598095834,208.6606483749929,208.68878274795134,208.905801203975,['space'],0,0.6921826729667373,None,208.90500565397087,,sub-sepehr,ses-main-base-z-1,run-1,grey,2024-04-25_11h50.24.269,VDT,2023.2.3,120.20974821185203,2024-04-25 11h51.17.037596 +0200,
./images_beh/Sphere_CCW-1.5_BG-grey_stim-white.png,0,204,204,204,208.95220286597032,,,,,,,,,,208.9067775909789,208.95220286597032,208.95220286597032,209.6570725409547,209.69891840196215,209.851001701958,None,0,,,,,sub-sepehr,ses-main-base-z-1,run-1,grey,2024-04-25_11h50.24.269,VDT,2023.2.3,120.20974821185203,2024-04-25 11h51.17.037596 +0200,
./images_beh/Sphere_CW-1.5_BG-grey_stim-white.png,0,205,205,205,209.89737659395905,,,,,,,,,,209.85175743699074,209.90306010399945,209.90306010399945,210.65586753498064,210.64860662195133,210.88330506597413,None,0,,,,,sub-sepehr,ses-main-base-z-1,run-1,grey,2024-04-25_11h50.24.269,VDT,2023.2.3,120.20974821185203,2024-04-25 11h51.17.037596 +0200,
./images_beh/Sphere_Ref_BG-grey_stim-white.png,0,206,206,206,210.9312720929738,,,,,,,,,,210.88420891296118,210.9312720929738,210.9312720929738,211.65569637197768,211.67091356398305,211.83206160995178,['space'],0,0.5895415080012754,None,,,sub-sepehr,ses-main-base-z-1,run-1,grey,2024-04-25_11h50.24.269,VDT,2023.2.3,120.20974821185203,2024-04-25 11h51.17.037596 +0200,
./images_beh/Sphere_CCW-1.5_BG-grey_stim-white.png,0,207,207,207,211.87928682396887,,,,,,,,,,211.83340447797673,211.90356137097115,211.90356137097115,212.65532212000107,212.6481589479954,212.8642176029971,None,0,,,,,sub-sepehr,ses-main-base-z-1,run-1,grey,2024-04-25_11h50.24.269,VDT,2023.2.3,120.20974821185203,2024-04-25 11h51.17.037596 +0200,
./images_beh/Sphere_CCW-1.5_BG-grey_stim-white.png,0,208,208,208,212.9085446409881,,,,,,,,,,212.86536439700285,212.9085446409881,212.9085446409881,213.65495049097808,213.65495049097808,213.88129162194673,None,0,,,,,sub-sepehr,ses-main-base-z-1,run-1,grey,2024-04-25_11h50.24.269,VDT,2023.2.3,120.20974821185203,2024-04-25 11h51.17.037596 +0200,
./images_beh/Sphere_CW-1.5_BG-grey_stim-white.png,0,209,209,209,213.9254329779651,,,,,,,,,,213.88222968997434,213.9254329779651,213.9254329779651,214.65474223298952,214.67028356599621,214.89707366697257,None,0,,,,,sub-sepehr,ses-main-base-z-1,run-1,grey,2024-04-25_11h50.24.269,VDT,2023.2.3,120.20974821185203,2024-04-25 11h51.17.037596 +0200,
./images_beh/Sphere_CW-1.5_BG-grey_stim-white.png,0,210,210,210,214.94229699694552,,,,,,,,,,214.89822260395158,214.94229699694552,214.94229699694552,215.65411478595342,215.68616836098954,215.90216107096057,None,0,,,215.90134965599282,,sub-sepehr,ses-main-base-z-1,run-1,grey,2024-04-25_11h50.24.269,VDT,2023.2.3,120.20974821185203,2024-04-25 11h51.17.037596 +0200,
./images_beh/Sphere_CW-1.5_BG-grey_stim-white.png,0,211,211,211,215.94771694095107,,,,,,,,,,215.9029315179796,215.94771694095107,215.94771694095107,216.6622644699528,216.6951646169764,216.88438959396444,None,0,,,,,sub-sepehr,ses-main-base-z-1,run-1,grey,2024-04-25_11h50.24.269,VDT,2023.2.3,120.20974821185203,2024-04-25 11h51.17.037596 +0200,
./images_beh/Sphere_Ref_BG-grey_stim-white.png,0,212,212,212,216.9282323399675,,,,,,,,,,216.8849761209567,216.9282323399675,216.9282323399675,217.6617733889725,217.66898556397064,217.82958765496733,['space'],0,0.6252477940288372,None,,,sub-sepehr,ses-main-base-z-1,run-1,grey,2024-04-25_11h50.24.269,VDT,2023.2.3,120.20974821185203,2024-04-25 11h51.17.037596 +0200,
./images_beh/Sphere_CW-1.5_BG-grey_stim-white.png,0,213,213,213,217.87694958696375,,,,,,,,,,217.83090257499134,217.91118097800063,217.91118097800063,218.66123918397352,218.65060889697634,218.86197857995285,None,0,,,,,sub-sepehr,ses-main-base-z-1,run-1,grey,2024-04-25_11h50.24.269,VDT,2023.2.3,120.20974821185203,2024-04-25 11h51.17.037596 +0200,
./images_beh/Sphere_CCW-1.5_BG-grey_stim-white.png,0,214,214,214,218.90833993599517,,,,,,,,,,218.86331783200148,218.91326434299117,218.91326434299117,219.66047629195964,219.66047629195964,219.86100845894543,None,0,,,,,sub-sepehr,ses-main-base-z-1,run-1,grey,2024-04-25_11h50.24.269,VDT,2023.2.3,120.20974821185203,2024-04-25 11h51.17.037596 +0200,
./images_beh/Sphere_CW-1.5_BG-grey_stim-white.png,0,215,215,215,219.90356983197853,,,,,,,,,,219.8620183369494,219.90971992898267,219.90971992898267,220.6599415219971,220.64930637495127,220.861178311985,None,0,,,,,sub-sepehr,ses-main-base-z-1,run-1,grey,2024-04-25_11h50.24.269,VDT,2023.2.3,120.20974821185203,2024-04-25 11h51.17.037596 +0200,
./images_beh/Sphere_CCW-1.5_BG-grey_stim-white.png,0,216,216,216,220.90804579795804,,,,,,,,,,220.8619662509882,220.91307313699508,220.91307313699508,221.6595516949892,221.6595516949892,221.86004859698005,None,0,,,,,sub-sepehr,ses-main-base-z-1,run-1,grey,2024-04-25_11h50.24.269,VDT,2023.2.3,120.20974821185203,2024-04-25 11h51.17.037596 +0200,
./images_beh/Sphere_CW-1.5_BG-grey_stim-white.png,0,217,217,217,221.90240895794705,,,,,,,,,,221.86109403095907,221.9090387369506,221.9090387369506,222.65953269100282,222.64811436395394,222.89889494900126,None,0,,,222.89812508097384,222.89812508097384,sub-sepehr,ses-main-base-z-1,run-1,grey,2024-04-25_11h50.24.269,VDT,2023.2.3,120.20974821185203,2024-04-25 11h51.17.037596 +0200,
./images_beh/Sphere_Ref_BG-grey_stim-white.png,0,218,218,218,222.94671319698682,,,,,,,,,,222.8996128749568,222.94671319698682,222.94671319698682,223.65951515594497,223.6915378679987,223.83049879898317,['space'],0,0.5596385999815539,None,,,sub-sepehr,ses-main-base-z-1,run-1,grey,2024-04-25_11h50.24.269,VDT,2023.2.3,120.20974821185203,2024-04-25 11h51.17.037596 +0200,
./images_beh/Sphere_CCW-1.5_BG-grey_stim-white.png,0,219,219,219,223.86493823397905,,,,,,,,,,223.8309455209528,223.91053329600254,223.91053329600254,224.6576461859513,224.6576461859513,224.87516744696768,None,0,,,,,sub-sepehr,ses-main-base-z-1,run-1,grey,2024-04-25_11h50.24.269,VDT,2023.2.3,120.20974821185203,2024-04-25 11h51.17.037596 +0200,
./images_beh/Sphere_CW-1.5_BG-grey_stim-white.png,0,220,220,220,224.9233160369913,,,,,,,,,,224.87641802395228,224.9233160369913,224.9233160369913,225.65738704096293,225.6640948279528,225.84220893197926,None,0,,,,,sub-sepehr,ses-main-base-z-1,run-1,grey,2024-04-25_11h50.24.269,VDT,2023.2.3,120.20974821185203,2024-04-25 11h51.17.037596 +0200,
./images_beh/Sphere_Ref_BG-grey_stim-white.png,0,221,221,221,225.88786372798495,,,,,,,,,,225.84298310399754,225.9128849169938,225.9128849169938,226.6745438639773,226.6745438639773,226.83099955599755,None,0,,,,,sub-sepehr,ses-main-base-z-1,run-1,grey,2024-04-25_11h50.24.269,VDT,2023.2.3,120.20974821185203,2024-04-25 11h51.17.037596 +0200,
./images_beh/Sphere_CW-1.5_BG-grey_stim-white.png,0,222,222,222,226.87772169196978,,,,,,,,,,226.83172425697558,226.9267043589498,226.9267043589498,227.65639135497622,227.67565813299734,227.87477115396177,None,0,,,,,sub-sepehr,ses-main-base-z-1,run-1,grey,2024-04-25_11h50.24.269,VDT,2023.2.3,120.20974821185203,2024-04-25 11h51.17.037596 +0200,
./images_beh/Sphere_CCW-1.5_BG-grey_stim-white.png,0,223,223,223,227.92385089199524,,,,,,,,,,227.8757223369903,227.92385089199524,227.92385089199524,228.65572555694962,228.67244667594787,228.83127162599703,None,0,,,,,sub-sepehr,ses-main-base-z-1,run-1,grey,2024-04-25_11h50.24.269,VDT,2023.2.3,120.20974821185203,2024-04-25 11h51.17.037596 +0200,
./images_beh/Sphere_Ref_BG-grey_stim-white.png,0,224,224,224,228.87876163597684,,,,,,,,,,228.83199808298377,228.9117259630002,228.9117259630002,229.65520710899727,229.65520710899727,229.9395814089803,['space'],0,0.563363368040882,None,229.89514841797063,229.90581900899997,sub-sepehr,ses-main-base-z-1,run-1,grey,2024-04-25_11h50.24.269,VDT,2023.2.3,120.20974821185203,2024-04-25 11h51.17.037596 +0200,
./images_beh/Sphere_CW-1.5_BG-grey_stim-white.png,0,225,225,225,229.9870820179931,,,,,,,,,,229.9411765029654,229.9870820179931,229.9870820179931,230.66353472694755,230.73877501598326,230.8631757319672,None,0,,,,,sub-sepehr,ses-main-base-z-1,run-1,grey,2024-04-25_11h50.24.269,VDT,2023.2.3,120.20974821185203,2024-04-25 11h51.17.037596 +0200,
./images_beh/Sphere_CW-1.5_BG-grey_stim-white.png,0,226,226,226,230.91158496995922,,,,,,,,,,230.863895262999,230.91158496995922,230.91158496995922,231.66081434395164,231.6542929589632,231.8725392560009,None,0,,,,,sub-sepehr,ses-main-base-z-1,run-1,grey,2024-04-25_11h50.24.269,VDT,2023.2.3,120.20974821185203,2024-04-25 11h51.17.037596 +0200,
./images_beh/Sphere_CCW-1.5_BG-grey_stim-white.png,0,227,227,227,231.92018218996236,,,,,,,,,,231.87355868698796,231.92018218996236,231.92018218996236,232.6610483249533,232.6610483249533,232.87385535199428,None,0,,,,,sub-sepehr,ses-main-base-z-1,run-1,grey,2024-04-25_11h50.24.269,VDT,2023.2.3,120.20974821185203,2024-04-25 11h51.17.037596 +0200,
./images_beh/Sphere_CW-1.5_BG-grey_stim-white.png,0,228,228,228,232.92254981095903,,,,,,,,,,232.87458869296825,232.92254981095903,232.92254981095903,233.67300825897837,233.67300825897837,233.84477781498572,None,0,,,,,sub-sepehr,ses-main-base-z-1,run-1,grey,2024-04-25_11h50.24.269,VDT,2023.2.3,120.20974821185203,2024-04-25 11h51.17.037596 +0200,
./images_beh/Sphere_CCW-1.5_BG-grey_stim-white.png,0,229,229,229,233.89211138297105,,,,,,,,,,233.845505974954,233.9092311509885,233.9092311509885,234.66035752097378,234.65305713395355,234.86030166596174,None,0,,,,,sub-sepehr,ses-main-base-z-1,run-1,grey,2024-04-25_11h50.24.269,VDT,2023.2.3,120.20974821185203,2024-04-25 11h51.17.037596 +0200,
./images_beh/Sphere_CCW-1.5_BG-grey_stim-white.png,0,230,230,230,234.90445642295526,,,,,,,,,,234.86106307100272,234.91926808696007,234.91926808696007,235.66904612694634,235.66904612694634,235.86952847294742,None,0,,,,,sub-sepehr,ses-main-base-z-1,run-1,grey,2024-04-25_11h50.24.269,VDT,2023.2.3,120.20974821185203,2024-04-25 11h51.17.037596 +0200,
./images_beh/Sphere_Ref_BG-grey_stim-white.png,0,231,231,231,235.916438997956,,,,,,,,,,235.8704041299643,235.916438997956,235.916438997956,236.6711567119928,236.6711567119928,236.8258695330005,None,0,,,,,sub-sepehr,ses-main-base-z-1,run-1,grey,2024-04-25_11h50.24.269,VDT,2023.2.3,120.20974821185203,2024-04-25 11h51.17.037596 +0200,
./images_beh/Sphere_CW-1.5_BG-grey_stim-white.png,0,232,232,232,236.87131719099125,,,,,,,,,,236.8265938909608,236.9094750469667,236.9094750469667,237.6585049869609,237.65159384196158,237.85221788095077,None,0,,,,,sub-sepehr,ses-main-base-z-1,run-1,grey,2024-04-25_11h50.24.269,VDT,2023.2.3,120.20974821185203,2024-04-25 11h51.17.037596 +0200,
./images_beh/Sphere_CCW-1.5_BG-grey_stim-white.png,0,233,233,233,237.8972187699983,,,,,,,,,,237.85342538094847,237.90316588798305,237.90316588798305,238.65794634795748,238.65104811597848,238.8414456549799,None,0,,,,,sub-sepehr,ses-main-base-z-1,run-1,grey,2024-04-25_11h50.24.269,VDT,2023.2.3,120.20974821185203,2024-04-25 11h51.17.037596 +0200,
./images_beh/Sphere_CCW-1.5_BG-grey_stim-white.png,0,234,234,234,238.88934139994672,,,,,,,,,,238.8421968939947,238.90634836099343,238.90634836099343,239.6577364099794,239.65073728497373,239.86784927296685,None,0,,,,,sub-sepehr,ses-main-base-z-1,run-1,grey,2024-04-25_11h50.24.269,VDT,2023.2.3,120.20974821185203,2024-04-25 11h51.17.037596 +0200,
./images_beh/Sphere_CCW-1.5_BG-grey_stim-white.png,0,235,235,235,239.91574860399123,,,,,,,,,,239.86895841296064,239.91574860399123,239.91574860399123,240.65613686694996,240.65613686694996,240.82395853794878,None,0,,,,,sub-sepehr,ses-main-base-z-1,run-1,grey,2024-04-25_11h50.24.269,VDT,2023.2.3,120.20974821185203,2024-04-25 11h51.17.037596 +0200,
./images_beh/Sphere_Ref_BG-grey_stim-white.png,0,236,236,236,240.8719860999845,,,,,,,,,,240.82467653800268,240.9055098669487,240.9055098669487,241.65530152595602,241.64910556998802,241.8334109080024,['space'],0,0.5357948690070771,None,,,sub-sepehr,ses-main-base-z-1,run-1,grey,2024-04-25_11h50.24.269,VDT,2023.2.3,120.20974821185203,2024-04-25 11h51.17.037596 +0200,
./images_beh/Sphere_CW-1.5_BG-grey_stim-white.png,0,237,237,237,241.87849171296693,,,,,,,,,,241.83445216796827,241.90413081395673,241.90413081395673,242.65606121596647,242.64899218297796,242.8391629929538,None,0,,,,,sub-sepehr,ses-main-base-z-1,run-1,grey,2024-04-25_11h50.24.269,VDT,2023.2.3,120.20974821185203,2024-04-25 11h51.17.037596 +0200,
./images_beh/Sphere_CCW-1.5_BG-grey_stim-white.png,0,238,238,238,242.88303468498634,,,,,,,,,,242.8400641089538,242.90437145798933,242.90437145798933,243.66501543094637,243.65136391000124,243.92054770496907,None,0,,,243.91485864599235,243.90040209394647,sub-sepehr,ses-main-base-z-1,run-1,grey,2024-04-25_11h50.24.269,VDT,2023.2.3,120.20974821185203,2024-04-25 11h51.17.037596 +0200,
./images_beh/Sphere_Ref_BG-grey_stim-white.png,0,239,239,239,243.96590534696588,,,,,,,,,,243.9211462949752,243.96590534696588,243.96590534696588,244.65510658896528,244.71715209895046,244.83244410098996,None,0,,,,,sub-sepehr,ses-main-base-z-1,run-1,grey,2024-04-25_11h50.24.269,VDT,2023.2.3,120.20974821185203,2024-04-25 11h51.17.037596 +0200,
./images_beh/Sphere_CCW-1.5_BG-grey_stim-white.png,0,240,240,240,244.87857892795,,,,,,,,,,244.8332289819955,244.90246290998766,244.90246290998766,245.66401112498716,245.66401112498716,245.86448985798052,None,0,,,,,sub-sepehr,ses-main-base-z-1,run-1,grey,2024-04-25_11h50.24.269,VDT,2023.2.3,120.20974821185203,2024-04-25 11h51.17.037596 +0200,
./images_beh/Sphere_CW-1.5_BG-grey_stim-white.png,0,241,241,241,245.90704824298155,,,,,,,,,,245.86533484997926,245.90704824298155,245.90704824298155,246.65393602097174,246.65393602097174,246.8313003819785,None,0,,,,,sub-sepehr,ses-main-base-z-1,run-1,grey,2024-04-25_11h50.24.269,VDT,2023.2.3,120.20974821185203,2024-04-25 11h51.17.037596 +0200,
./images_beh/Sphere_Ref_BG-grey_stim-white.png,0,242,242,242,246.87501782696927,,,,,,,,,,246.8320511469501,246.90252695896197,246.90252695896197,247.6527379299514,247.6461264739628,247.86396489094477,['space'],0,0.5789482319960371,None,,,sub-sepehr,ses-main-base-z-1,run-1,grey,2024-04-25_11h50.24.269,VDT,2023.2.3,120.20974821185203,2024-04-25 11h51.17.037596 +0200,
./images_beh/Sphere_CW-1.5_BG-grey_stim-white.png,0,243,243,243,247.9102786059957,,,,,,,,,,247.86512931698235,247.9102786059957,247.9102786059957,248.652196954994,248.652196954994,248.9182608659612,None,0,,,248.8959127079579,248.90108300495194,sub-sepehr,ses-main-base-z-1,run-1,grey,2024-04-25_11h50.24.269,VDT,2023.2.3,120.20974821185203,2024-04-25 11h51.17.037596 +0200,
./images_beh/Sphere_CW-1.5_BG-grey_stim-white.png,0,244,244,244,248.96650954097277,,,,,,,,,,248.91897141496884,248.96650954097277,248.96650954097277,249.66196255898103,249.7116107129841,249.83632653794484,['space'],0,0.6982520220335573,None,,,sub-sepehr,ses-main-base-z-1,run-1,grey,2024-04-25_11h50.24.269,VDT,2023.2.3,120.20974821185203,2024-04-25 11h51.17.037596 +0200,
./images_beh/Sphere_CW-1.5_BG-grey_stim-white.png,0,245,245,245,249.88484559295466,,,,,,,,,,249.8372644810006,249.91128982894588,249.91128982894588,250.66134734498337,250.65010988694848,250.89553827198688,None,0,,,,,sub-sepehr,ses-main-base-z-1,run-1,grey,2024-04-25_11h50.24.269,VDT,2023.2.3,120.20974821185203,2024-04-25 11h51.17.037596 +0200,
./images_beh/Sphere_Ref_BG-grey_stim-white.png,0,246,246,246,250.9396852789796,,,,,,,,,,250.8962584809633,250.9396852789796,250.9396852789796,251.6605980429449,251.68338025396224,251.86161872395314,None,0,,,,,sub-sepehr,ses-main-base-z-1,run-1,grey,2024-04-25_11h50.24.269,VDT,2023.2.3,120.20974821185203,2024-04-25 11h51.17.037596 +0200,
./images_beh/Sphere_CW-1.5_BG-grey_stim-white.png,0,247,247,247,251.90674942999613,,,,,,,,,,251.862852413964,251.91149781097192,251.91149781097192,252.6604260339518,252.6604260339518,252.85131027095485,None,0,,,,,sub-sepehr,ses-main-base-z-1,run-1,grey,2024-04-25_11h50.24.269,VDT,2023.2.3,120.20974821185203,2024-04-25 11h51.17.037596 +0200,
./images_beh/Sphere_CW-1.5_BG-grey_stim-white.png,0,248,248,248,252.89853757899255,,,,,,,,,,252.85204036399955,252.90997658198467,252.90997658198467,253.65987226198195,253.64868585497607,253.8939234179561,None,0,,,,,sub-sepehr,ses-main-base-z-1,run-1,grey,2024-04-25_11h50.24.269,VDT,2023.2.3,120.20974821185203,2024-04-25 11h51.17.037596 +0200,
./images_beh/Sphere_CCW-1.5_BG-grey_stim-white.png,0,249,249,249,253.9404412479489,,,,,,,,,,253.89498412795365,253.9404412479489,253.9404412479489,254.6592735379818,254.6824442629586,254.86023012397345,None,0,,,,,sub-sepehr,ses-main-base-z-1,run-1,grey,2024-04-25_11h50.24.269,VDT,2023.2.3,120.20974821185203,2024-04-25 11h51.17.037596 +0200,
./images_beh/Sphere_CCW-1.5_BG-grey_stim-white.png,0,250,250,250,254.9024324719794,,,,,,,,,,254.86086543899728,254.90937912097434,254.90937912097434,255.65879242296796,255.6479582779575,255.89286581694614,None,0,,,,,sub-sepehr,ses-main-base-z-1,run-1,grey,2024-04-25_11h50.24.269,VDT,2023.2.3,120.20974821185203,2024-04-25 11h51.17.037596 +0200,
./images_beh/Sphere_CCW-1.5_BG-grey_stim-white.png,0,251,251,251,255.93842449097428,,,,,,,,,,255.89380410895683,255.93842449097428,255.93842449097428,256.66112708096625,256.69176844897447,256.84303851699224,None,0,,,,,sub-sepehr,ses-main-base-z-1,run-1,grey,2024-04-25_11h50.24.269,VDT,2023.2.3,120.20974821185203,2024-04-25 11h51.17.037596 +0200,
./images_beh/Sphere_CW-1.5_BG-grey_stim-white.png,0,252,252,252,256.89261553098913,,,,,,,,,,256.8445249189972,256.9142682349775,256.9142682349775,257.65782816999126,257.65782816999126,257.8920208379859,None,0,,,,,sub-sepehr,ses-main-base-z-1,run-1,grey,2024-04-25_11h50.24.269,VDT,2023.2.3,120.20974821185203,2024-04-25 11h51.17.037596 +0200,
./images_beh/Sphere_CW-1.5_BG-grey_stim-white.png,0,253,253,253,257.93738308595493,,,,,,,,,,257.8930324809626,257.93738308595493,257.93738308595493,258.6572762049618,258.69083121896256,258.8919446449727,None,0,,,,,sub-sepehr,ses-main-base-z-1,run-1,grey,2024-04-25_11h50.24.269,VDT,2023.2.3,120.20974821185203,2024-04-25 11h51.17.037596 +0200,
./images_beh/Sphere_Ref_BG-grey_stim-white.png,0,254,254,254,258.936946627975,,,,,,,,,,258.89262496097945,258.936946627975,258.936946627975,259.6636558469618,259.6792127559893,259.88092230499024,['space'],0,0.6639443830354139,None,,,sub-sepehr,ses-main-base-z-1,run-1,grey,2024-04-25_11h50.24.269,VDT,2023.2.3,120.20974821185203,2024-04-25 11h51.17.037596 +0200,
./images_beh/Sphere_CCW-1.5_BG-grey_stim-white.png,0,255,255,255,259.92642820597393,,,,,,,,,,259.88180850696517,259.92642820597393,259.92642820597393,260.6564020679798,260.6732274579699,260.8911547399475,None,0,,,,,sub-sepehr,ses-main-base-z-1,run-1,grey,2024-04-25_11h50.24.269,VDT,2023.2.3,120.20974821185203,2024-04-25 11h51.17.037596 +0200,
./images_beh/Sphere_CW-1.5_BG-grey_stim-white.png,0,256,256,256,260.9415562529466,,,,,,,,,,260.8920338379685,260.9415562529466,260.9415562529466,261.65586067398544,261.6890021569561,261.87429646297824,None,0,,,,,sub-sepehr,ses-main-base-z-1,run-1,grey,2024-04-25_11h50.24.269,VDT,2023.2.3,120.20974821185203,2024-04-25 11h51.17.037596 +0200,
./images_beh/Sphere_CW-1.5_BG-grey_stim-white.png,0,257,257,257,261.92368475097464,,,,,,,,,,261.8751846989617,261.92368475097464,261.92368475097464,262.65534013998695,262.6720037529594,262.8921716659679,None,0,,,,,sub-sepehr,ses-main-base-z-1,run-1,grey,2024-04-25_11h50.24.269,VDT,2023.2.3,120.20974821185203,2024-04-25 11h51.17.037596 +0200,
./images_beh/Sphere_CCW-1.5_BG-grey_stim-white.png,0,258,258,258,262.9422614889918,,,,,,,,,,262.8928980229539,262.9422614889918,262.9422614889918,263.6621806729818,263.6909622759558,263.92879613797413,None,0,,,263.91131764499005,,sub-sepehr,ses-main-base-z-1,run-1,grey,2024-04-25_11h50.24.269,VDT,2023.2.3,120.20974821185203,2024-04-25 11h51.17.037596 +0200,
./images_beh/Sphere_Ref_BG-grey_stim-white.png,0,259,259,259,263.97307429194916,,,,,,,,,,263.92938114894787,263.97307429194916,263.97307429194916,264.6540550709469,264.7205381319509,264.8714537699707,['space'],0,0.636226087983232,None,,,sub-sepehr,ses-main-base-z-1,run-1,grey,2024-04-25_11h50.24.269,VDT,2023.2.3,120.20974821185203,2024-04-25 11h51.17.037596 +0200,
./images_beh/Sphere_CCW-1.5_BG-grey_stim-white.png,0,260,260,260,264.9164938519825,,,,,,,,,,264.87256982096005,264.9164938519825,264.9164938519825,265.66007699194597,265.66007699194597,265.90757752698846,None,0,,,265.9067798179458,,sub-sepehr,ses-main-base-z-1,run-1,grey,2024-04-25_11h50.24.269,VDT,2023.2.3,120.20974821185203,2024-04-25 11h51.17.037596 +0200,
./images_beh/Sphere_CW-1.5_BG-grey_stim-white.png,0,261,261,261,265.95573725597933,,,,,,,,,,265.90832552697975,265.95573725597933,265.95573725597933,266.67005866597174,266.7032263119472,266.85656423598994,None,0,,,,,sub-sepehr,ses-main-base-z-1,run-1,grey,2024-04-25_11h50.24.269,VDT,2023.2.3,120.20974821185203,2024-04-25 11h51.17.037596 +0200,
./images_beh/Sphere_Ref_BG-grey_stim-white.png,0,262,262,262,266.90333748294506,,,,,,,,,,266.85732916899724,266.90877945598913,266.90877945598913,267.65998596395366,267.65313237695955,267.8403337399941,None,0,,,,,sub-sepehr,ses-main-base-z-1,run-1,grey,2024-04-25_11h50.24.269,VDT,2023.2.3,120.20974821185203,2024-04-25 11h51.17.037596 +0200,
./images_beh/Sphere_CCW-1.5_BG-grey_stim-white.png,0,263,263,263,267.8896097719553,,,,,,,,,,267.8410676569911,267.90856271097437,267.90856271097437,268.6599392289645,268.652578640962,268.90846019395394,None,0,,,268.9078161380021,268.9078161380021,sub-sepehr,ses-main-base-z-1,run-1,grey,2024-04-25_11h50.24.269,VDT,2023.2.3,120.20974821185203,2024-04-25 11h51.17.037596 +0200,
./images_beh/Sphere_CW-1.5_BG-grey_stim-white.png,0,264,264,264,268.9550605379627,,,,,,,,,,268.9090550849796,268.9550605379627,268.9550605379627,269.6598976299865,269.7018854059861,269.9221929949708,None,0,,,269.9213517259923,,sub-sepehr,ses-main-base-z-1,run-1,grey,2024-04-25_11h50.24.269,VDT,2023.2.3,120.20974821185203,2024-04-25 11h51.17.037596 +0200,
./images_beh/Sphere_CCW-1.5_BG-grey_stim-white.png,0,265,265,265,269.9695360909682,,,,,,,,,,269.9229751889943,269.9695360909682,269.9695360909682,270.6595714489813,270.71814007195644,270.84269084897824,None,0,,,,,sub-sepehr,ses-main-base-z-1,run-1,grey,2024-04-25_11h50.24.269,VDT,2023.2.3,120.20974821185203,2024-04-25 11h51.17.037596 +0200,
./images_beh/Sphere_CCW-1.5_BG-grey_stim-white.png,0,266,266,266,270.89287667698227,,,,,,,,,,270.84346568997717,270.9068461439456,270.9068461439456,271.65722770796856,271.65081305097556,271.8421686619986,None,0,,,,,sub-sepehr,ses-main-base-z-1,run-1,grey,2024-04-25_11h50.24.269,VDT,2023.2.3,120.20974821185203,2024-04-25 11h51.17.037596 +0200,
./images_beh/Sphere_Ref_BG-grey_stim-white.png,0,267,267,267,271.889154785953,,,,,,,,,,271.84300878294744,271.9067529349704,271.9067529349704,272.65606745297555,272.6500466549769,272.81816144497134,['space'],0,0.6059982110164128,None,,,sub-sepehr,ses-main-base-z-1,run-1,grey,2024-04-25_11h50.24.269,VDT,2023.2.3,120.20974821185203,2024-04-25 11h51.17.037596 +0200,
./images_beh/Sphere_CCW-1.5_BG-grey_stim-white.png,0,268,268,268,272.8638044639956,,,,,,,,,,272.819175851997,272.9066596219782,272.9066596219782,273.65677993797,273.64975521195447,273.8672179839923,None,0,,,,,sub-sepehr,ses-main-base-z-1,run-1,grey,2024-04-25_11h50.24.269,VDT,2023.2.3,120.20974821185203,2024-04-25 11h51.17.037596 +0200,
./images_beh/Sphere_CW-1.5_BG-grey_stim-white.png,0,269,269,269,273.9158399809967,,,,,,,,,,273.8684398639598,273.9158399809967,273.9158399809967,274.6573457919876,274.6573457919876,274.90551713696914,None,0,,,274.9046987159527,274.9046987159527,sub-sepehr,ses-main-base-z-1,run-1,grey,2024-04-25_11h50.24.269,VDT,2023.2.3,120.20974821185203,2024-04-25 11h51.17.037596 +0200,
