image,trials.thisRepN,trials.thisTrialN,trials.thisN,trials.thisIndex,thisRow.t,notes,WaitingForScannerTrigger.started,Vertical.started,key_resp.started,WaitingForScannerTrigger.stopped,key_resp.keys,key_resp.corr,key_resp.rt,key_resp.duration,VDT.started,PresentedLine1.started,key_resp_2.started,FixDot2.started,PresentedLine1.stopped,VDT.stopped,key_resp_2.keys,key_resp_2.corr,FixDot2.stopped,key_resp_2.stopped,key_resp_2.rt,key_resp_2.duration,participant,session,run,BG_color,date,expName,psychopyVersion,frameRate,expStart,
,,,,,,,0.004345971974544227,0.009524266002699733,0.009524266002699733,16.131466755992733,s,0,16.075768876005895,0.044795817986596376,,,,,,,,,,,,,sub-sepehr,ses-main-lbase-l-1,run-1,grey,2024-04-25_11h40.20.679,VDT,2023.2.3,120.23206516120305,2024-04-25 11h40.48.048354 +0200,
./images_beh/Sphere_CW-1.5_BG-grey_stim-white.png,0,0,0,0,16.191667309962213,,,,,,,,,,16.15158911998151,16.191667309962213,16.191667309962213,16.87674292799784,16.933036080969032,17.066569566959515,None,0,,,,,sub-sepehr,ses-main-lbase-l-1,run-1,grey,2024-04-25_11h40.20.679,VDT,2023.2.3,120.23206516120305,2024-04-25 11h40.48.048354 +0200,
./images_beh/Sphere_CW-1.5_BG-grey_stim-white.png,0,1,1,1,17.111036202986725,,,,,,,,,,17.06896974297706,17.131818490976002,17.131818490976002,17.87601959996391,17.87601959996391,18.127152395958547,None,0,18.114828372956254,18.126083111972548,,,sub-sepehr,ses-main-lbase-l-1,run-1,grey,2024-04-25_11h40.20.679,VDT,2023.2.3,120.23206516120305,2024-04-25 11h40.48.048354 +0200,
./images_beh/Sphere_CCW-1.5_BG-grey_stim-white.png,0,2,2,2,18.171570864971727,,,,,,,,,,18.128091603983194,18.171570864971727,18.171570864971727,18.87580957094906,18.917444063990843,19.076290591969155,['space'],0,,,0.7298468980006874,None,sub-sepehr,ses-main-lbase-l-1,run-1,grey,2024-04-25_11h40.20.679,VDT,2023.2.3,120.23206516120305,2024-04-25 11h40.48.048354 +0200,
./images_beh/Sphere_Ref_BG-grey_stim-white.png,0,3,3,3,19.120158521982376,,,,,,,,,,19.079548791982234,19.124745011969935,19.124745011969935,19.888087567989714,19.86374970799079,20.115306045976467,['space'],0,,20.1144038309576,0.7447120469878428,None,sub-sepehr,ses-main-lbase-l-1,run-1,grey,2024-04-25_11h40.20.679,VDT,2023.2.3,120.23206516120305,2024-04-25 11h40.48.048354 +0200,
./images_beh/Sphere_CW-1.5_BG-grey_stim-white.png,0,4,4,4,20.163751619984396,,,,,,,,,,20.11627233994659,20.163751619984396,20.163751619984396,20.891644272953272,20.908215367002413,21.066423726966605,None,0,,,,,sub-sepehr,ses-main-lbase-l-1,run-1,grey,2024-04-25_11h40.20.679,VDT,2023.2.3,120.23206516120305,2024-04-25 11h40.48.048354 +0200,
./images_beh/Sphere_CW-1.5_BG-grey_stim-white.png,0,5,5,5,21.11569668696029,,,,,,,,,,21.0671689939918,21.12517354398733,21.12517354398733,21.882122862967663,21.874370288976934,22.06095210899366,None,0,,,,,sub-sepehr,ses-main-lbase-l-1,run-1,grey,2024-04-25_11h40.20.679,VDT,2023.2.3,120.23206516120305,2024-04-25 11h40.48.048354 +0200,
./images_beh/Sphere_Ref_BG-grey_stim-white.png,0,6,6,6,22.109836470976006,,,,,,,,,,22.061692858987954,22.129754757974297,22.129754757974297,22.880707410979085,22.880707410979085,23.064478166983463,None,0,,,,,sub-sepehr,ses-main-lbase-l-1,run-1,grey,2024-04-25_11h40.20.679,VDT,2023.2.3,120.23206516120305,2024-04-25 11h40.48.048354 +0200,
./images_beh/Sphere_CCW-1.5_BG-grey_stim-white.png,0,7,7,7,23.10817646299256,,,,,,,,,,23.065203976002522,23.13005615194561,23.13005615194561,23.89027165499283,23.89027165499283,24.074339177983347,None,0,,,,,sub-sepehr,ses-main-lbase-l-1,run-1,grey,2024-04-25_11h40.20.679,VDT,2023.2.3,120.23206516120305,2024-04-25 11h40.48.048354 +0200,
./images_beh/Sphere_CCW-1.5_BG-grey_stim-white.png,0,8,8,8,24.12123435200192,,,,,,,,,,24.075127191958018,24.127242613991257,24.127242613991257,24.889337837987114,24.889337837987114,25.06451480794931,None,0,,,,,sub-sepehr,ses-main-lbase-l-1,run-1,grey,2024-04-25_11h40.20.679,VDT,2023.2.3,120.23206516120305,2024-04-25 11h40.48.048354 +0200,
./images_beh/Sphere_CCW-1.5_BG-grey_stim-white.png,0,9,9,9,25.112591276993044,,,,,,,,,,25.065397802973166,25.128270803950727,25.128270803950727,25.879911359981634,25.872254264948424,26.109180742001627,None,0,,,,,sub-sepehr,ses-main-lbase-l-1,run-1,grey,2024-04-25_11h40.20.679,VDT,2023.2.3,120.23206516120305,2024-04-25 11h40.48.048354 +0200,
./images_beh/Sphere_Ref_BG-grey_stim-white.png,0,10,10,10,26.158379824948497,,,,,,,,,,26.10990350996144,26.158379824948497,26.158379824948497,26.890521156950854,26.91198703396367,27.09606241498841,['space'],0,,,0.6320957799907774,None,sub-sepehr,ses-main-lbase-l-1,run-1,grey,2024-04-25_11h40.20.679,VDT,2023.2.3,120.23206516120305,2024-04-25 11h40.48.048354 +0200,
./images_beh/Sphere_CCW-1.5_BG-grey_stim-white.png,0,11,11,11,27.143193125957623,,,,,,,,,,27.097093505959492,27.143193125957623,27.143193125957623,27.87896987295244,27.891162728948984,28.095670611946844,None,0,,,,,sub-sepehr,ses-main-lbase-l-1,run-1,grey,2024-04-25_11h40.20.679,VDT,2023.2.3,120.23206516120305,2024-04-25 11h40.48.048354 +0200,
./images_beh/Sphere_CW-1.5_BG-grey_stim-white.png,0,12,12,12,28.144107083964627,,,,,,,,,,28.096510551986285,28.144107083964627,28.144107083964627,28.87757197394967,28.8871284769848,29.10493997798767,['space'],0,,,0.6460740699549206,None,sub-sepehr,ses-main-lbase-l-1,run-1,grey,2024-04-25_11h40.20.679,VDT,2023.2.3,120.23206516120305,2024-04-25 11h40.48.048354 +0200,
./images_beh/Sphere_CCW-1.5_BG-grey_stim-white.png,0,13,13,13,29.15175391494995,,,,,,,,,,29.105783779988997,29.15175391494995,29.15175391494995,29.878396961954422,29.894000986998435,30.12701673497213,None,0,30.12024186097551,,,,sub-sepehr,ses-main-lbase-l-1,run-1,grey,2024-04-25_11h40.20.679,VDT,2023.2.3,120.23206516120305,2024-04-25 11h40.48.048354 +0200,
./images_beh/Sphere_Ref_BG-grey_stim-white.png,0,14,14,14,30.175832467968576,,,,,,,,,,30.128062830946874,30.175832467968576,30.175832467968576,30.889108312956523,30.919374840974342,31.087639420991763,None,0,,,,,sub-sepehr,ses-main-lbase-l-1,run-1,grey,2024-04-25_11h40.20.679,VDT,2023.2.3,120.23206516120305,2024-04-25 11h40.48.048354 +0200,
./images_beh/Sphere_CW-1.5_BG-grey_stim-white.png,0,15,15,15,31.13247049896745,,,,,,,,,,31.088411440956406,31.13247049896745,31.13247049896745,31.876261195982806,31.876261195982806,32.0698762749671,None,0,,,,,sub-sepehr,ses-main-lbase-l-1,run-1,grey,2024-04-25_11h40.20.679,VDT,2023.2.3,120.23206516120305,2024-04-25 11h40.48.048354 +0200,
./images_beh/Sphere_CCW-1.5_BG-grey_stim-white.png,0,16,16,16,32.10951961396495,,,,,,,,,,32.07078191899927,32.124675635946915,32.124675635946915,32.87591991695808,32.8688019879628,33.086478629964404,None,0,,,,,sub-sepehr,ses-main-lbase-l-1,run-1,grey,2024-04-25_11h40.20.679,VDT,2023.2.3,120.23206516120305,2024-04-25 11h40.48.048354 +0200,
./images_beh/Sphere_CW-1.5_BG-grey_stim-white.png,0,17,17,17,33.13681231398368,,,,,,,,,,33.08728868397884,33.13681231398368,33.13681231398368,33.87500044895569,33.88737431896152,34.05232592194807,['space'],0,,,0.5086457600118592,None,sub-sepehr,ses-main-lbase-l-1,run-1,grey,2024-04-25_11h40.20.679,VDT,2023.2.3,120.23206516120305,2024-04-25 11h40.48.048354 +0200,
./images_beh/Sphere_CCW-1.5_BG-grey_stim-white.png,0,18,18,18,34.09708281996427,,,,,,,,,,34.05336104996968,34.123520989960525,34.123520989960525,34.884859331999905,34.884859331999905,35.054770621994976,None,0,,,,,sub-sepehr,ses-main-lbase-l-1,run-1,grey,2024-04-25_11h40.20.679,VDT,2023.2.3,120.23206516120305,2024-04-25 11h40.48.048354 +0200,
./images_beh/Sphere_CCW-1.5_BG-grey_stim-white.png,0,19,19,19,35.10229009698378,,,,,,,,,,35.05549672798952,35.12371878599515,35.12371878599515,35.87434174097143,35.8673391219927,36.03882123698713,None,0,,,,,sub-sepehr,ses-main-lbase-l-1,run-1,grey,2024-04-25_11h40.20.679,VDT,2023.2.3,120.23206516120305,2024-04-25 11h40.48.048354 +0200,
./images_beh/Sphere_CCW-1.5_BG-grey_stim-white.png,0,20,20,20,36.07110279495828,,,,,,,,,,36.03916918399045,36.12349910795456,36.12349910795456,36.88588711095508,36.869369052001275,37.05068568198476,None,0,,,,,sub-sepehr,ses-main-lbase-l-1,run-1,grey,2024-04-25_11h40.20.679,VDT,2023.2.3,120.23206516120305,2024-04-25 11h40.48.048354 +0200,
./images_beh/Sphere_CW-1.5_BG-grey_stim-white.png,0,21,21,21,37.09040488494793,,,,,,,,,,37.0511938429554,37.121410034946166,37.121410034946166,37.87357233295916,37.87357233295916,38.08376068196958,['space'],0,,,0.7716451250016689,None,sub-sepehr,ses-main-lbase-l-1,run-1,grey,2024-04-25_11h40.20.679,VDT,2023.2.3,120.23206516120305,2024-04-25 11h40.48.048354 +0200,
./images_beh/Sphere_CCW-1.5_BG-grey_stim-white.png,0,22,22,22,38.13175893499283,,,,,,,,,,38.08505126700038,38.13175893499283,38.13175893499283,38.87343433697242,38.87343433697242,39.0902661139844,None,0,,,,,sub-sepehr,ses-main-lbase-l-1,run-1,grey,2024-04-25_11h40.20.679,VDT,2023.2.3,120.23206516120305,2024-04-25 11h40.48.048354 +0200,
./images_beh/Sphere_Ref_BG-grey_stim-white.png,0,23,23,23,39.13836811395595,,,,,,,,,,39.09108318696963,39.13836811395595,39.13836811395595,39.87261882395251,39.88142774795415,40.08283782098442,['space'],0,,,0.7632864529732615,None,sub-sepehr,ses-main-lbase-l-1,run-1,grey,2024-04-25_11h40.20.679,VDT,2023.2.3,120.23206516120305,2024-04-25 11h40.48.048354 +0200,
./images_beh/Sphere_CCW-1.5_BG-grey_stim-white.png,0,24,24,24,40.13045459496789,,,,,,,,,,40.08401450398378,40.13045459496789,40.13045459496789,40.87123915599659,40.87123915599659,41.068089591979515,None,0,,,,,sub-sepehr,ses-main-lbase-l-1,run-1,grey,2024-04-25_11h40.20.679,VDT,2023.2.3,120.23206516120305,2024-04-25 11h40.48.048354 +0200,
./images_beh/Sphere_CW-1.5_BG-grey_stim-white.png,0,25,25,25,41.11524512898177,,,,,,,,,,41.06884435698157,41.12036252400139,41.12036252400139,41.871738111949526,41.86388005898334,42.03717256698292,['space'],0,,,0.7117196099716239,None,sub-sepehr,ses-main-lbase-l-1,run-1,grey,2024-04-25_11h40.20.679,VDT,2023.2.3,120.23206516120305,2024-04-25 11h40.48.048354 +0200,
./images_beh/Sphere_Ref_BG-grey_stim-white.png,0,26,26,26,42.07550456200261,,,,,,,,,,42.03781342797447,42.12002349895192,42.12002349895192,42.88022175995866,42.86635899398243,43.09775007999269,None,0,,,,,sub-sepehr,ses-main-lbase-l-1,run-1,grey,2024-04-25_11h40.20.679,VDT,2023.2.3,120.23206516120305,2024-04-25 11h40.48.048354 +0200,
./images_beh/Sphere_CW-1.5_BG-grey_stim-white.png,0,27,27,27,43.14618814695859,,,,,,,,,,43.09886584698688,43.14618814695859,43.14618814695859,43.87978378299158,43.88670509494841,44.104060628975276,None,0,,,,,sub-sepehr,ses-main-lbase-l-1,run-1,grey,2024-04-25_11h40.20.679,VDT,2023.2.3,120.23206516120305,2024-04-25 11h40.48.048354 +0200,
./images_beh/Sphere_CCW-1.5_BG-grey_stim-white.png,0,28,28,28,44.14568144996883,,,,,,,,,,44.10476215794915,44.14568144996883,44.14568144996883,44.87910319695948,44.88565554196248,45.0634759569657,None,0,,,,,sub-sepehr,ses-main-lbase-l-1,run-1,grey,2024-04-25_11h40.20.679,VDT,2023.2.3,120.23206516120305,2024-04-25 11h40.48.048354 +0200,
./images_beh/Sphere_CW-1.5_BG-grey_stim-white.png,0,29,29,29,45.105840909993276,,,,,,,,,,45.06414649897488,45.12906942999689,45.12906942999689,45.87865950894775,45.86811396095436,46.12981701694662,None,0,46.11682297196239,46.11682297196239,,,sub-sepehr,ses-main-lbase-l-1,run-1,grey,2024-04-25_11h40.20.679,VDT,2023.2.3,120.23206516120305,2024-04-25 11h40.48.048354 +0200,
./images_beh/Sphere_Ref_BG-grey_stim-white.png,0,30,30,30,46.17350011697272,,,,,,,,,,46.13052122096997,46.17350011697272,46.17350011697272,46.878054444969166,46.91726466995897,47.07836420094827,['space'],0,,,0.5524518369929865,None,sub-sepehr,ses-main-lbase-l-1,run-1,grey,2024-04-25_11h40.20.679,VDT,2023.2.3,120.23206516120305,2024-04-25 11h40.48.048354 +0200,
./images_beh/Sphere_CCW-1.5_BG-grey_stim-white.png,0,31,31,31,47.11882514995523,,,,,,,,,,47.079448134987615,47.12746139196679,47.12746139196679,47.87960421398748,47.87960421398748,48.05073019495467,None,0,,,,,sub-sepehr,ses-main-lbase-l-1,run-1,grey,2024-04-25_11h40.20.679,VDT,2023.2.3,120.23206516120305,2024-04-25 11h40.48.048354 +0200,
./images_beh/Sphere_CW-1.5_BG-grey_stim-white.png,0,32,32,32,48.089443407952785,,,,,,,,,,48.051232959958725,48.12674962094752,48.12674962094752,48.87695325398818,48.86603967897827,49.0996433099499,None,0,,,,,sub-sepehr,ses-main-lbase-l-1,run-1,grey,2024-04-25_11h40.20.679,VDT,2023.2.3,120.23206516120305,2024-04-25 11h40.48.048354 +0200,
./images_beh/Sphere_Ref_BG-grey_stim-white.png,0,33,33,33,49.146109897992574,,,,,,,,,,49.10028222895926,49.146109897992574,49.146109897992574,49.876800503989216,49.89284967200365,50.0501541569829,['space'],0,,,0.5629058890044689,None,sub-sepehr,ses-main-lbase-l-1,run-1,grey,2024-04-25_11h40.20.679,VDT,2023.2.3,120.23206516120305,2024-04-25 11h40.48.048354 +0200,
./images_beh/Sphere_CW-1.5_BG-grey_stim-white.png,0,34,34,34,50.09236592997331,,,,,,,,,,50.05092351796338,50.13237990398193,50.13237990398193,50.87587461498333,50.87587461498333,51.06651780597167,None,0,,,,,sub-sepehr,ses-main-lbase-l-1,run-1,grey,2024-04-25_11h40.20.679,VDT,2023.2.3,120.23206516120305,2024-04-25 11h40.48.048354 +0200,
./images_beh/Sphere_CW-1.5_BG-grey_stim-white.png,0,35,35,35,51.11181070294697,,,,,,,,,,51.06759762996808,51.13127050199546,51.13127050199546,51.875556141952984,51.875556141952984,52.07657308795024,None,0,,,,,sub-sepehr,ses-main-lbase-l-1,run-1,grey,2024-04-25_11h40.20.679,VDT,2023.2.3,120.23206516120305,2024-04-25 11h40.48.048354 +0200,
./images_beh/Sphere_CCW-1.5_BG-grey_stim-white.png,0,36,36,36,52.12055347597925,,,,,,,,,,52.077490262978245,52.125335247954354,52.125335247954354,52.88132786395727,52.86315460095648,53.08121119096177,None,0,,,,,sub-sepehr,ses-main-lbase-l-1,run-1,grey,2024-04-25_11h40.20.679,VDT,2023.2.3,120.23206516120305,2024-04-25 11h40.48.048354 +0200,
./images_beh/Sphere_CCW-1.5_BG-grey_stim-white.png,0,37,37,37,53.12202383199474,,,,,,,,,,53.08171577495523,53.12202383199474,53.12202383199474,53.894387708976865,53.877971344976686,54.048145163978916,None,0,,,,,sub-sepehr,ses-main-lbase-l-1,run-1,grey,2024-04-25_11h40.20.679,VDT,2023.2.3,120.23206516120305,2024-04-25 11h40.48.048354 +0200,
./images_beh/Sphere_CCW-1.5_BG-grey_stim-white.png,0,38,38,38,54.086801843950525,,,,,,,,,,54.04858723300276,54.130954398948234,54.130954398948234,54.87469408096513,54.87469408096513,55.04749396099942,None,0,,,,,sub-sepehr,ses-main-lbase-l-1,run-1,grey,2024-04-25_11h40.20.679,VDT,2023.2.3,120.23206516120305,2024-04-25 11h40.48.048354 +0200,
./images_beh/Sphere_Ref_BG-grey_stim-white.png,0,39,39,39,55.087645188963506,,,,,,,,,,55.04800280998461,55.130974415980745,55.130974415980745,55.880067501973826,55.873456247965805,56.14711976394756,['space'],0,56.12350590794813,56.12350590794813,0.6183611979940906,None,sub-sepehr,ses-main-lbase-l-1,run-1,grey,2024-04-25_11h40.20.679,VDT,2023.2.3,120.23206516120305,2024-04-25 11h40.48.048354 +0200,
./images_beh/Sphere_CW-1.5_BG-grey_stim-white.png,0,40,40,40,56.193675172980875,,,,,,,,,,56.14804084500065,56.193675172980875,56.193675172980875,56.88190153695177,56.93949264497496,57.09048688196344,None,0,,,,,sub-sepehr,ses-main-lbase-l-1,run-1,grey,2024-04-25_11h40.20.679,VDT,2023.2.3,120.23206516120305,2024-04-25 11h40.48.048354 +0200,
./images_beh/Sphere_CW-1.5_BG-grey_stim-white.png,0,41,41,41,57.13511325698346,,,,,,,,,,57.091497223998886,57.13511325698346,57.13511325698346,57.87971282697981,57.87971282697981,58.04731204197742,None,0,,,,,sub-sepehr,ses-main-lbase-l-1,run-1,grey,2024-04-25_11h40.20.679,VDT,2023.2.3,120.23206516120305,2024-04-25 11h40.48.048354 +0200,
./images_beh/Sphere_CCW-1.5_BG-grey_stim-white.png,0,42,42,42,58.08978965994902,,,,,,,,,,58.04805932298768,58.129754225956276,58.129754225956276,58.87890045699896,58.871982002980076,59.077024874975905,None,0,,,,,sub-sepehr,ses-main-lbase-l-1,run-1,grey,2024-04-25_11h40.20.679,VDT,2023.2.3,120.23206516120305,2024-04-25 11h40.48.048354 +0200,
./images_beh/Sphere_CW-1.5_BG-grey_stim-white.png,0,43,43,43,59.11381538398564,,,,,,,,,,59.07733396399999,59.12653354200302,59.12653354200302,59.87903125898447,59.87164392397972,60.07944110996323,None,0,,,,,sub-sepehr,ses-main-lbase-l-1,run-1,grey,2024-04-25_11h40.20.679,VDT,2023.2.3,120.23206516120305,2024-04-25 11h40.48.048354 +0200,
./images_beh/Sphere_Ref_BG-grey_stim-white.png,0,44,44,44,60.12242864695145,,,,,,,,,,60.08016666996991,60.13812809897354,60.13812809897354,60.87906747398665,60.87906747398665,61.07891758700134,None,0,,,,,sub-sepehr,ses-main-lbase-l-1,run-1,grey,2024-04-25_11h40.20.679,VDT,2023.2.3,120.23206516120305,2024-04-25 11h40.48.048354 +0200,
./images_beh/Sphere_CW-1.5_BG-grey_stim-white.png,0,45,45,45,61.121756895969156,,,,,,,,,,61.07950518099824,61.12747589597711,61.12747589597711,61.87748028198257,61.87042244395707,62.087967604980804,['space'],0,,,0.49469299003249034,None,sub-sepehr,ses-main-lbase-l-1,run-1,grey,2024-04-25_11h40.20.679,VDT,2023.2.3,120.23206516120305,2024-04-25 11h40.48.048354 +0200,
./images_beh/Sphere_CW-1.5_BG-grey_stim-white.png,0,46,46,46,62.13600764796138,,,,,,,,,,62.08942857995862,62.13600764796138,62.13600764796138,62.87450682697818,62.87450682697818,63.12643189600203,None,0,63.120014359999914,63.1255336899776,,,sub-sepehr,ses-main-lbase-l-1,run-1,grey,2024-04-25_11h40.20.679,VDT,2023.2.3,120.23206516120305,2024-04-25 11h40.48.048354 +0200,
./images_beh/Sphere_Ref_BG-grey_stim-white.png,0,47,47,47,63.16862767300336,,,,,,,,,,63.12701940495754,63.16862767300336,63.16862767300336,63.886362192977685,63.909699634998105,64.0377240779926,None,0,,,,,sub-sepehr,ses-main-lbase-l-1,run-1,grey,2024-04-25_11h40.20.679,VDT,2023.2.3,120.23206516120305,2024-04-25 11h40.48.048354 +0200,
./images_beh/Sphere_CW-1.5_BG-grey_stim-white.png,0,48,48,48,64.08212020096835,,,,,,,,,,64.03850725898519,64.12726418097736,64.12726418097736,64.88875323795946,64.88875323795946,65.10233081795741,None,0,,,,,sub-sepehr,ses-main-lbase-l-1,run-1,grey,2024-04-25_11h40.20.679,VDT,2023.2.3,120.23206516120305,2024-04-25 11h40.48.048354 +0200,
./images_beh/Sphere_CCW-1.5_BG-grey_stim-white.png,0,49,49,49,65.13918000098784,,,,,,,,,,65.10300348798046,65.13918000098784,65.13918000098784,65.87419507396407,65.88490636600181,66.10267787298653,None,0,,,,,sub-sepehr,ses-main-lbase-l-1,run-1,grey,2024-04-25_11h40.20.679,VDT,2023.2.3,120.23206516120305,2024-04-25 11h40.48.048354 +0200,
./images_beh/Sphere_CW-1.5_BG-grey_stim-white.png,0,50,50,50,66.14930233894847,,,,,,,,,,66.1037842379883,66.14930233894847,66.14930233894847,66.87578991398914,66.89188351295888,67.06884527695365,None,0,,,,,sub-sepehr,ses-main-lbase-l-1,run-1,grey,2024-04-25_11h40.20.679,VDT,2023.2.3,120.23206516120305,2024-04-25 11h40.48.048354 +0200,
./images_beh/Sphere_Ref_BG-grey_stim-white.png,0,51,51,51,67.10854510799982,,,,,,,,,,67.06974519899813,67.12381964200176,67.12381964200176,67.8748340709717,67.86749887297628,68.07368007395416,['space'],0,,,0.5306726960116066,None,sub-sepehr,ses-main-lbase-l-1,run-1,grey,2024-04-25_11h40.20.679,VDT,2023.2.3,120.23206516120305,2024-04-25 11h40.48.048354 +0200,
./images_beh/Sphere_CCW-1.5_BG-grey_stim-white.png,0,52,52,52,68.12570804997813,,,,,,,,,,68.07420304196421,68.13323239295278,68.13323239295278,68.88358066295041,68.88358066295041,69.10070395696675,None,0,,,,,sub-sepehr,ses-main-lbase-l-1,run-1,grey,2024-04-25_11h40.20.679,VDT,2023.2.3,120.23206516120305,2024-04-25 11h40.48.048354 +0200,
./images_beh/Sphere_CCW-1.5_BG-grey_stim-white.png,0,53,53,53,69.1448831789894,,,,,,,,,,69.10172190295998,69.1448831789894,69.1448831789894,69.87291029799962,69.88815461099148,70.1167496899725,None,0,,,,,sub-sepehr,ses-main-lbase-l-1,run-1,grey,2024-04-25_11h40.20.679,VDT,2023.2.3,120.23206516120305,2024-04-25 11h40.48.048354 +0200,
./images_beh/Sphere_CCW-1.5_BG-grey_stim-white.png,0,54,54,54,70.15343450795626,,,,,,,,,,70.11742081295233,70.15343450795626,70.15343450795626,70.8716304289992,70.89845028996933,71.09903401194606,None,0,,,,,sub-sepehr,ses-main-lbase-l-1,run-1,grey,2024-04-25_11h40.20.679,VDT,2023.2.3,120.23206516120305,2024-04-25 11h40.48.048354 +0200,
./images_beh/Sphere_CW-1.5_BG-grey_stim-white.png,0,55,55,55,71.13602483196883,,,,,,,,,,71.09961298597045,71.13602483196883,71.13602483196883,71.93982702598441,71.93982702598441,72.08808947500074,None,0,,,,,sub-sepehr,ses-main-lbase-l-1,run-1,grey,2024-04-25_11h40.20.679,VDT,2023.2.3,120.23206516120305,2024-04-25 11h40.48.048354 +0200,
./images_beh/Sphere_Ref_BG-grey_stim-white.png,0,56,56,56,72.14273677399615,,,,,,,,,,72.0885952609824,72.14273677399615,72.14273677399615,72.87091174395755,72.88768890395295,73.07096337998519,['space'],0,,,0.5993901430047117,None,sub-sepehr,ses-main-lbase-l-1,run-1,grey,2024-04-25_11h40.20.679,VDT,2023.2.3,120.23206516120305,2024-04-25 11h40.48.048354 +0200,
./images_beh/Sphere_CCW-1.5_BG-grey_stim-white.png,0,57,57,57,73.10319223697297,,,,,,,,,,73.07134713995038,73.11953012499725,73.11953012499725,73.86985664395615,73.86393547296757,74.04784265899798,None,0,,,,,sub-sepehr,ses-main-lbase-l-1,run-1,grey,2024-04-25_11h40.20.679,VDT,2023.2.3,120.23206516120305,2024-04-25 11h40.48.048354 +0200,
./images_beh/Sphere_CW-1.5_BG-grey_stim-white.png,0,58,58,58,74.07772839500103,,,,,,,,,,74.0486446559662,74.11919814697467,74.11919814697467,74.88018142496003,74.86360811197665,75.06985170295229,None,0,,,,,sub-sepehr,ses-main-lbase-l-1,run-1,grey,2024-04-25_11h40.20.679,VDT,2023.2.3,120.23206516120305,2024-04-25 11h40.48.048354 +0200,
./images_beh/Sphere_CW-1.5_BG-grey_stim-white.png,0,59,59,59,75.10652853199281,,,,,,,,,,75.07024030695902,75.12995931500336,75.12995931500336,75.87989051197655,75.86821848194813,76.06365404499229,['space'],0,,,0.6745098899700679,None,sub-sepehr,ses-main-lbase-l-1,run-1,grey,2024-04-25_11h40.20.679,VDT,2023.2.3,120.23206516120305,2024-04-25 11h40.48.048354 +0200,
./images_beh/Sphere_Ref_BG-grey_stim-white.png,0,60,60,60,76.09288306295639,,,,,,,,,,76.06448311998975,76.12954993895255,76.12954993895255,76.87897341395728,76.8669584459858,77.0516934399493,None,0,,,,,sub-sepehr,ses-main-lbase-l-1,run-1,grey,2024-04-25_11h40.20.679,VDT,2023.2.3,120.23206516120305,2024-04-25 11h40.48.048354 +0200,
./images_beh/Sphere_CW-1.5_BG-grey_stim-white.png,0,61,61,61,77.08685079199495,,,,,,,,,,77.05203276994871,77.13042421499267,77.13042421499267,77.87835889298003,77.87835889298003,78.07914937200258,None,0,,,,,sub-sepehr,ses-main-lbase-l-1,run-1,grey,2024-04-25_11h40.20.679,VDT,2023.2.3,120.23206516120305,2024-04-25 11h40.48.048354 +0200,
./images_beh/Sphere_CCW-1.5_BG-grey_stim-white.png,0,62,62,62,78.11408080597175,,,,,,,,,,78.07983927399619,78.12837338994723,78.12837338994723,78.87783573498018,78.86566853697877,79.06703694199678,None,0,,,,,sub-sepehr,ses-main-lbase-l-1,run-1,grey,2024-04-25_11h40.20.679,VDT,2023.2.3,120.23206516120305,2024-04-25 11h40.48.048354 +0200,
./images_beh/Sphere_CW-1.5_BG-grey_stim-white.png,0,63,63,63,79.10034068697132,,,,,,,,,,79.0673911809572,79.12772160896566,79.12772160896566,79.8779929629527,79.86657535197446,80.06834893499035,None,0,,,,,sub-sepehr,ses-main-lbase-l-1,run-1,grey,2024-04-25_11h40.20.679,VDT,2023.2.3,120.23206516120305,2024-04-25 11h40.48.048354 +0200,
./images_beh/Sphere_CW-1.5_BG-grey_stim-white.png,0,64,64,64,80.1079358739662,,,,,,,,,,80.06893908599159,80.12762158398982,80.12762158398982,80.87791495397687,80.86579215998063,81.08428184496006,None,0,,,,,sub-sepehr,ses-main-lbase-l-1,run-1,grey,2024-04-25_11h40.20.679,VDT,2023.2.3,120.23206516120305,2024-04-25 11h40.48.048354 +0200,
./images_beh/Sphere_Ref_BG-grey_stim-white.png,0,65,65,65,81.12984706595307,,,,,,,,,,81.08501151297241,81.12984706595307,81.12984706595307,81.87691060296493,81.87691060296493,82.04520919895731,None,0,,,,,sub-sepehr,ses-main-lbase-l-1,run-1,grey,2024-04-25_11h40.20.679,VDT,2023.2.3,120.23206516120305,2024-04-25 11h40.48.048354 +0200,
./images_beh/Sphere_CCW-1.5_BG-grey_stim-white.png,0,66,66,66,82.08869361400139,,,,,,,,,,82.04605633398751,82.12704466900323,82.12704466900323,82.8768189639668,82.86502120399382,83.06080897100037,None,0,,,,,sub-sepehr,ses-main-lbase-l-1,run-1,grey,2024-04-25_11h40.20.679,VDT,2023.2.3,120.23206516120305,2024-04-25 11h40.48.048354 +0200,
./images_beh/Sphere_CW-1.5_BG-grey_stim-white.png,0,67,67,67,83.10626737697748,,,,,,,,,,83.06189039198216,83.12621606799075,83.12621606799075,83.87597313796869,83.8648331919685,84.04301832598867,['space'],0,,,0.5431556450203061,None,sub-sepehr,ses-main-lbase-l-1,run-1,grey,2024-04-25_11h40.20.679,VDT,2023.2.3,120.23206516120305,2024-04-25 11h40.48.048354 +0200,
./images_beh/Sphere_CCW-1.5_BG-grey_stim-white.png,0,68,68,68,84.0891278089839,,,,,,,,,,84.04459459998179,84.13267058995552,84.13267058995552,84.87535868497798,84.87535868497798,85.12650436197873,None,0,85.11390656797448,,,,sub-sepehr,ses-main-lbase-l-1,run-1,grey,2024-04-25_11h40.20.679,VDT,2023.2.3,120.23206516120305,2024-04-25 11h40.48.048354 +0200,
./images_beh/Sphere_Ref_BG-grey_stim-white.png,0,69,69,69,85.17226908594603,,,,,,,,,,85.12721383397002,85.17226908594603,85.17226908594603,85.87865514698206,85.9139167299727,86.09226610098267,['space'],0,,,0.6892718700109981,None,sub-sepehr,ses-main-lbase-l-1,run-1,grey,2024-04-25_11h40.20.679,VDT,2023.2.3,120.23206516120305,2024-04-25 11h40.48.048354 +0200,
./images_beh/Sphere_CCW-1.5_BG-grey_stim-white.png,0,70,70,70,86.1402966309688,,,,,,,,,,86.09389465895947,86.1402966309688,86.1402966309688,86.87430083897198,86.880603572994,87.10874654597137,None,0,,,,,sub-sepehr,ses-main-lbase-l-1,run-1,grey,2024-04-25_11h40.20.679,VDT,2023.2.3,120.23206516120305,2024-04-25 11h40.48.048354 +0200,
./images_beh/Sphere_CCW-1.5_BG-grey_stim-white.png,0,71,71,71,87.15643535699928,,,,,,,,,,87.10982125200098,87.15643535699928,87.15643535699928,87.8807624829933,87.91027417697478,88.13022976694629,None,0,88.12953914597165,,,,sub-sepehr,ses-main-lbase-l-1,run-1,grey,2024-04-25_11h40.20.679,VDT,2023.2.3,120.23206516120305,2024-04-25 11h40.48.048354 +0200,
./images_beh/Sphere_CW-1.5_BG-grey_stim-white.png,0,72,72,72,88.17602478899062,,,,,,,,,,88.13081323698862,88.17602478899062,88.17602478899062,88.88047759898473,88.92340730194701,89.0789490879979,None,0,,,,,sub-sepehr,ses-main-lbase-l-1,run-1,grey,2024-04-25_11h40.20.679,VDT,2023.2.3,120.23206516120305,2024-04-25 11h40.48.048354 +0200,
./images_beh/Sphere_CW-1.5_BG-grey_stim-white.png,0,73,73,73,89.11622420296771,,,,,,,,,,89.07933550496818,89.12300832098117,89.12300832098117,89.89254496496869,89.86287895200076,90.08078593894606,None,0,,,,,sub-sepehr,ses-main-lbase-l-1,run-1,grey,2024-04-25_11h40.20.679,VDT,2023.2.3,120.23206516120305,2024-04-25 11h40.48.048354 +0200,
./images_beh/Sphere_CCW-1.5_BG-grey_stim-white.png,0,74,74,74,90.12599070399301,,,,,,,,,,90.08153639698867,90.13935711898375,90.13935711898375,90.87950352497865,90.87950352497865,91.12607066897908,None,0,,,,,sub-sepehr,ses-main-lbase-l-1,run-1,grey,2024-04-25_11h40.20.679,VDT,2023.2.3,120.23206516120305,2024-04-25 11h40.48.048354 +0200,
./images_beh/Sphere_CCW-1.5_BG-grey_stim-white.png,0,75,75,75,91.17355285695521,,,,,,,,,,91.12679779197788,91.17355285695521,91.17355285695521,91.88020677794702,91.92194247897714,92.10666606097948,None,0,,,,,sub-sepehr,ses-main-lbase-l-1,run-1,grey,2024-04-25_11h40.20.679,VDT,2023.2.3,120.23206516120305,2024-04-25 11h40.48.048354 +0200,
./images_beh/Sphere_CCW-1.5_BG-grey_stim-white.png,0,76,76,76,92.15558143297676,,,,,,,,,,92.10781083296752,92.15558143297676,92.15558143297676,92.87905273697106,92.89496797398897,93.07216509495629,None,0,,,,,sub-sepehr,ses-main-lbase-l-1,run-1,grey,2024-04-25_11h40.20.679,VDT,2023.2.3,120.23206516120305,2024-04-25 11h40.48.048354 +0200,
./images_beh/Sphere_Ref_BG-grey_stim-white.png,0,77,77,77,93.11305193597218,,,,,,,,,,93.07322674698662,93.12688205699669,93.12688205699669,93.87834167998517,93.87107090896461,94.08841366996057,None,0,,,,,sub-sepehr,ses-main-lbase-l-1,run-1,grey,2024-04-25_11h40.20.679,VDT,2023.2.3,120.23206516120305,2024-04-25 11h40.48.048354 +0200,
./images_beh/Sphere_CW-1.5_BG-grey_stim-white.png,0,78,78,78,94.13174800795969,,,,,,,,,,94.08925063995412,94.13174800795969,94.13174800795969,94.87840488395886,94.87840488395886,95.10453483299352,None,0,,,,,sub-sepehr,ses-main-lbase-l-1,run-1,grey,2024-04-25_11h40.20.679,VDT,2023.2.3,120.23206516120305,2024-04-25 11h40.48.048354 +0200,
./images_beh/Sphere_CCW-1.5_BG-grey_stim-white.png,0,79,79,79,95.14707383199129,,,,,,,,,,95.10532186494675,95.14707383199129,95.14707383199129,95.87827906297753,95.89273356000194,96.10434938495746,None,0,,,,,sub-sepehr,ses-main-lbase-l-1,run-1,grey,2024-04-25_11h40.20.679,VDT,2023.2.3,120.23206516120305,2024-04-25 11h40.48.048354 +0200,
./images_beh/Sphere_Ref_BG-grey_stim-white.png,0,80,80,80,96.15407438197872,,,,,,,,,,96.10548155999277,96.15407438197872,96.15407438197872,96.88633034698432,96.9024396109744,97.07778785197297,None,0,,,,,sub-sepehr,ses-main-lbase-l-1,run-1,grey,2024-04-25_11h40.20.679,VDT,2023.2.3,120.23206516120305,2024-04-25 11h40.48.048354 +0200,
./images_beh/Sphere_CW-1.5_BG-grey_stim-white.png,0,81,81,81,97.1247746059671,,,,,,,,,,97.07853448396781,97.13638935796916,97.13638935796916,97.87549105897779,97.88531118800165,98.04147804394597,['space'],0,,,0.7093314200174063,None,sub-sepehr,ses-main-lbase-l-1,run-1,grey,2024-04-25_11h40.20.679,VDT,2023.2.3,120.23206516120305,2024-04-25 11h40.48.048354 +0200,
./images_beh/Sphere_CW-1.5_BG-grey_stim-white.png,0,82,82,82,98.07791934598936,,,,,,,,,,98.04213932296261,98.12562921899371,98.12562921899371,98.87692176899873,98.86886480398243,99.13608874299098,None,0,99.12325874698581,99.11821130698081,,,sub-sepehr,ses-main-lbase-l-1,run-1,grey,2024-04-25_11h40.20.679,VDT,2023.2.3,120.23206516120305,2024-04-25 11h40.48.048354 +0200,
./images_beh/Sphere_Ref_BG-grey_stim-white.png,0,83,83,83,99.18215846194653,,,,,,,,,,99.13688208296662,99.18215846194653,99.18215846194653,99.87427528394619,99.92354291694937,100.0682562639704,['space'],0,,,0.6167759929667227,None,sub-sepehr,ses-main-lbase-l-1,run-1,grey,2024-04-25_11h40.20.679,VDT,2023.2.3,120.23206516120305,2024-04-25 11h40.48.048354 +0200,
./images_beh/Sphere_CCW-1.5_BG-grey_stim-white.png,0,84,84,84,100.11007028596941,,,,,,,,,,100.06939150299877,100.12218626297545,100.12218626297545,100.8842714309576,100.86991415399825,101.09206012496725,None,0,,,,,sub-sepehr,ses-main-lbase-l-1,run-1,grey,2024-04-25_11h40.20.679,VDT,2023.2.3,120.23206516120305,2024-04-25 11h40.48.048354 +0200,
./images_beh/Sphere_CW-1.5_BG-grey_stim-white.png,0,85,85,85,101.13913050596602,,,,,,,,,,101.0927873949986,101.13913050596602,101.13913050596602,101.88340033096028,101.89065721799852,102.07391094998457,['space'],0,,,0.6907099939999171,None,sub-sepehr,ses-main-lbase-l-1,run-1,grey,2024-04-25_11h40.20.679,VDT,2023.2.3,120.23206516120305,2024-04-25 11h40.48.048354 +0200,
./images_beh/Sphere_CW-1.5_BG-grey_stim-white.png,0,86,86,86,102.11737857200205,,,,,,,,,,102.07467211398762,102.12287345295772,102.12287345295772,102.8728115199483,102.8660905379802,103.1218078689999,None,0,103.11609124299139,103.11609124299139,,,sub-sepehr,ses-main-lbase-l-1,run-1,grey,2024-04-25_11h40.20.679,VDT,2023.2.3,120.23206516120305,2024-04-25 11h40.48.048354 +0200,
./images_beh/Sphere_Ref_BG-grey_stim-white.png,0,87,87,87,103.16715023299912,,,,,,,,,,103.12264373595826,103.16715023299912,103.16715023299912,103.87420537299477,103.91584322199924,104.08590732194716,None,0,,,,,sub-sepehr,ses-main-lbase-l-1,run-1,grey,2024-04-25_11h40.20.679,VDT,2023.2.3,120.23206516120305,2024-04-25 11h40.48.048354 +0200,
./images_beh/Sphere_CCW-1.5_BG-grey_stim-white.png,0,88,88,88,104.13118418998783,,,,,,,,,,104.0867115049623,104.13118418998783,104.13118418998783,104.87219282996375,104.87219282996375,105.08299366995925,None,0,,,,,sub-sepehr,ses-main-lbase-l-1,run-1,grey,2024-04-25_11h40.20.679,VDT,2023.2.3,120.23206516120305,2024-04-25 11h40.48.048354 +0200,
./images_beh/Sphere_CCW-1.5_BG-grey_stim-white.png,0,89,89,89,105.13122230797308,,,,,,,,,,105.08417524199467,105.13122230797308,105.13122230797308,105.87127224798314,105.87127224798314,106.10562004399253,None,0,,,,,sub-sepehr,ses-main-lbase-l-1,run-1,grey,2024-04-25_11h40.20.679,VDT,2023.2.3,120.23206516120305,2024-04-25 11h40.48.048354 +0200,
./images_beh/Sphere_CCW-1.5_BG-grey_stim-white.png,0,90,90,90,106.1516936669941,,,,,,,,,,106.10638991295127,106.1516936669941,106.1516936669941,106.87229933298659,106.89775301597547,107.10113134799758,None,0,,,,,sub-sepehr,ses-main-lbase-l-1,run-1,grey,2024-04-25_11h40.20.679,VDT,2023.2.3,120.23206516120305,2024-04-25 11h40.48.048354 +0200,
./images_beh/Sphere_CCW-1.5_BG-grey_stim-white.png,0,91,91,91,107.14617344195722,,,,,,,,,,107.1018673919607,107.14617344195722,107.14617344195722,107.88042251596926,107.88667607394746,108.04813934594858,None,0,,,,,sub-sepehr,ses-main-lbase-l-1,run-1,grey,2024-04-25_11h40.20.679,VDT,2023.2.3,120.23206516120305,2024-04-25 11h40.48.048354 +0200,
./images_beh/Sphere_CCW-1.5_BG-grey_stim-white.png,0,92,92,92,108.09451922395965,,,,,,,,,,108.04896019998705,108.13020333799068,108.13020333799068,108.87998028600123,108.86848733498482,109.04751697095344,None,0,,,,,sub-sepehr,ses-main-lbase-l-1,run-1,grey,2024-04-25_11h40.20.679,VDT,2023.2.3,120.23206516120305,2024-04-25 11h40.48.048354 +0200,
./images_beh/Sphere_CCW-1.5_BG-grey_stim-white.png,0,93,93,93,109.09297965996666,,,,,,,,,,109.04851064796094,109.12991514697205,109.12991514697205,109.87923657795181,109.86736917495728,110.08679566800129,None,0,,,,,sub-sepehr,ses-main-lbase-l-1,run-1,grey,2024-04-25_11h40.20.679,VDT,2023.2.3,120.23206516120305,2024-04-25 11h40.48.048354 +0200,
./images_beh/Sphere_Ref_BG-grey_stim-white.png,0,94,94,94,110.13646477099974,,,,,,,,,,110.08754584594863,110.13646477099974,110.13646477099974,110.87880492996192,110.88528583198786,111.06991147698136,['space'],0,,,0.6129418690106831,None,sub-sepehr,ses-main-lbase-l-1,run-1,grey,2024-04-25_11h40.20.679,VDT,2023.2.3,120.23206516120305,2024-04-25 11h40.48.048354 +0200,
./images_beh/Sphere_CCW-1.5_BG-grey_stim-white.png,0,95,95,95,111.117504617956,,,,,,,,,,111.07085838494822,111.12810077494942,111.12810077494942,111.87828519998584,111.86714792595012,112.06243329396239,None,0,,,,,sub-sepehr,ses-main-lbase-l-1,run-1,grey,2024-04-25_11h40.20.679,VDT,2023.2.3,120.23206516120305,2024-04-25 11h40.48.048354 +0200,
./images_beh/Sphere_CW-1.5_BG-grey_stim-white.png,0,96,96,96,112.10709271294763,,,,,,,,,,112.06345287099248,112.12811192095978,112.12811192095978,112.87773867999204,112.86673544900259,113.10128870198969,None,0,,,,,sub-sepehr,ses-main-lbase-l-1,run-1,grey,2024-04-25_11h40.20.679,VDT,2023.2.3,120.23206516120305,2024-04-25 11h40.48.048354 +0200,
./images_beh/Sphere_CW-1.5_BG-grey_stim-white.png,0,97,97,97,113.14906871295534,,,,,,,,,,113.10201196599519,113.14906871295534,113.14906871295534,113.87714812898776,113.8938231349457,114.07817657198757,None,0,,,,,sub-sepehr,ses-main-lbase-l-1,run-1,grey,2024-04-25_11h40.20.679,VDT,2023.2.3,120.23206516120305,2024-04-25 11h40.48.048354 +0200,
./images_beh/Sphere_Ref_BG-grey_stim-white.png,0,98,98,98,114.122499538993,,,,,,,,,,114.07911945699016,114.12747294199653,114.12747294199653,114.87673903995892,114.86571232497226,115.06728219694924,None,0,,,,,sub-sepehr,ses-main-lbase-l-1,run-1,grey,2024-04-25_11h40.20.679,VDT,2023.2.3,120.23206516120305,2024-04-25 11h40.48.048354 +0200,
./images_beh/Sphere_CW-1.5_BG-grey_stim-white.png,0,99,99,99,115.11068641894963,,,,,,,,,,115.06787382398034,115.12630221096333,115.12630221096333,115.87658671097597,115.86553033895325,116.09370403096545,None,0,,,,,sub-sepehr,ses-main-lbase-l-1,run-1,grey,2024-04-25_11h40.20.679,VDT,2023.2.3,120.23206516120305,2024-04-25 11h40.48.048354 +0200,
./images_beh/Sphere_CCW-1.5_BG-grey_stim-white.png,0,100,100,100,116.13866301899543,,,,,,,,,,116.09479075897252,116.13866301899543,116.13866301899543,116.87553474295419,116.88229060696904,117.04852809698787,None,0,,,,,sub-sepehr,ses-main-lbase-l-1,run-1,grey,2024-04-25_11h40.20.679,VDT,2023.2.3,120.23206516120305,2024-04-25 11h40.48.048354 +0200,
./images_beh/Sphere_CW-1.5_BG-grey_stim-white.png,0,101,101,101,117.09072890196694,,,,,,,,,,117.04913811595179,117.13123458699556,117.13123458699556,117.8751258959528,117.8751258959528,118.11481765995268,['space'],0,118.11415893497178,,0.49790464603574947,None,sub-sepehr,ses-main-lbase-l-1,run-1,grey,2024-04-25_11h40.20.679,VDT,2023.2.3,120.23206516120305,2024-04-25 11h40.48.048354 +0200,
./images_beh/Sphere_Ref_BG-grey_stim-white.png,0,102,102,102,118.1582396599697,,,,,,,,,,118.11556268896675,118.1582396599697,118.1582396599697,118.87464151799213,118.89742739498615,119.12552328495076,None,0,119.11261307098903,,,,sub-sepehr,ses-main-lbase-l-1,run-1,grey,2024-04-25_11h40.20.679,VDT,2023.2.3,120.23206516120305,2024-04-25 11h40.48.048354 +0200,
./images_beh/Sphere_CW-1.5_BG-grey_stim-white.png,0,103,103,103,119.17187970294617,,,,,,,,,,119.12648758699652,119.17187970294617,119.17187970294617,119.88190060999477,119.91409015096724,120.07485258195084,None,0,,,,,sub-sepehr,ses-main-lbase-l-1,run-1,grey,2024-04-25_11h40.20.679,VDT,2023.2.3,120.23206516120305,2024-04-25 11h40.48.048354 +0200,
./images_beh/Sphere_CCW-1.5_BG-grey_stim-white.png,0,104,104,104,120.11453579599038,,,,,,,,,,120.0757357289549,120.12379390397109,120.12379390397109,120.88099668495124,120.87379800499184,121.11089675698895,None,0,,,,,sub-sepehr,ses-main-lbase-l-1,run-1,grey,2024-04-25_11h40.20.679,VDT,2023.2.3,120.23206516120305,2024-04-25 11h40.48.048354 +0200,
./images_beh/Sphere_Ref_BG-grey_stim-white.png,0,105,105,105,121.15507813595468,,,,,,,,,,121.11162227095338,121.15507813595468,121.15507813595468,121.87952597095864,121.89541867095977,122.04777059797198,['space'],0,,,0.6507265989785083,None,sub-sepehr,ses-main-lbase-l-1,run-1,grey,2024-04-25_11h40.20.679,VDT,2023.2.3,120.23206516120305,2024-04-25 11h40.48.048354 +0200,
./images_beh/Sphere_CW-1.5_BG-grey_stim-white.png,0,106,106,106,122.09402475896059,,,,,,,,,,122.04871568200178,122.12956681899959,122.12956681899959,122.87247680797009,122.87247680797009,123.15746836300241,None,0,123.12542894098442,123.13961207598913,,,sub-sepehr,ses-main-lbase-l-1,run-1,grey,2024-04-25_11h40.20.679,VDT,2023.2.3,120.23206516120305,2024-04-25 11h40.48.048354 +0200,
./images_beh/Sphere_CW-1.5_BG-grey_stim-white.png,0,107,107,107,123.20085617597215,,,,,,,,,,123.15821542195044,123.20085617597215,123.20085617597215,123.8809822909534,123.94516083196504,124.10642073099734,None,0,,,,,sub-sepehr,ses-main-lbase-l-1,run-1,grey,2024-04-25_11h40.20.679,VDT,2023.2.3,120.23206516120305,2024-04-25 11h40.48.048354 +0200,
./images_beh/Sphere_CW-1.5_BG-grey_stim-white.png,0,108,108,108,124.15193031798117,,,,,,,,,,124.10737009998411,124.15193031798117,124.15193031798117,124.87998346897075,124.89547795098042,125.08989162900252,None,0,,,,,sub-sepehr,ses-main-lbase-l-1,run-1,grey,2024-04-25_11h40.20.679,VDT,2023.2.3,120.23206516120305,2024-04-25 11h40.48.048354 +0200,
./images_beh/Sphere_CW-1.5_BG-grey_stim-white.png,0,109,109,109,125.13896234496497,,,,,,,,,,125.09069546795217,125.13896234496497,125.13896234496497,125.87876418395899,125.87876418395899,126.08972580195405,None,0,,,,,sub-sepehr,ses-main-lbase-l-1,run-1,grey,2024-04-25_11h40.20.679,VDT,2023.2.3,120.23206516120305,2024-04-25 11h40.48.048354 +0200,
./images_beh/Sphere_Ref_BG-grey_stim-white.png,0,110,110,110,126.13967310194857,,,,,,,,,,126.09052089398028,126.13967310194857,126.13967310194857,126.8792423279956,126.88721431297017,127.08884120598668,None,0,,,,,sub-sepehr,ses-main-lbase-l-1,run-1,grey,2024-04-25_11h40.20.679,VDT,2023.2.3,120.23206516120305,2024-04-25 11h40.48.048354 +0200,
./images_beh/Sphere_CW-1.5_BG-grey_stim-white.png,0,111,111,111,127.13785558397649,,,,,,,,,,127.08961245999672,127.13785558397649,127.13785558397649,127.87672283698339,127.88664845598396,128.07003648596583,['space'],0,,,0.5966018429608084,None,sub-sepehr,ses-main-lbase-l-1,run-1,grey,2024-04-25_11h40.20.679,VDT,2023.2.3,120.23206516120305,2024-04-25 11h40.48.048354 +0200,
./images_beh/Sphere_CCW-1.5_BG-grey_stim-white.png,0,112,112,112,128.10205427196342,,,,,,,,,,128.07079365395475,128.12576576595893,128.12576576595893,128.8771824860014,128.8697790269507,129.10963283496676,None,0,,,,,sub-sepehr,ses-main-lbase-l-1,run-1,grey,2024-04-25_11h40.20.679,VDT,2023.2.3,120.23206516120305,2024-04-25 11h40.48.048354 +0200,
./images_beh/Sphere_CCW-1.5_BG-grey_stim-white.png,0,113,113,113,129.1546349049895,,,,,,,,,,129.11021350795636,129.1546349049895,129.1546349049895,129.88879792694934,129.90326970996102,130.10295928199776,None,0,,,,,sub-sepehr,ses-main-lbase-l-1,run-1,grey,2024-04-25_11h40.20.679,VDT,2023.2.3,120.23206516120305,2024-04-25 11h40.48.048354 +0200,
./images_beh/Sphere_CW-1.5_BG-grey_stim-white.png,0,114,114,114,130.14201819896698,,,,,,,,,,130.10391737695318,130.14201819896698,130.14201819896698,130.8771556839929,130.88555704499595,131.04287631600164,None,0,,,,,sub-sepehr,ses-main-lbase-l-1,run-1,grey,2024-04-25_11h40.20.679,VDT,2023.2.3,120.23206516120305,2024-04-25 11h40.48.048354 +0200,
./images_beh/Sphere_CCW-1.5_BG-grey_stim-white.png,0,115,115,115,131.08783072099322,,,,,,,,,,131.04400089697447,131.12491460196907,131.12491460196907,131.87359836196993,131.86779982299777,132.0680967749795,None,0,,,,,sub-sepehr,ses-main-lbase-l-1,run-1,grey,2024-04-25_11h40.20.679,VDT,2023.2.3,120.23206516120305,2024-04-25 11h40.48.048354 +0200,
./images_beh/Sphere_Ref_BG-grey_stim-white.png,0,116,116,116,132.10042461095145,,,,,,,,,,132.06856446596794,132.12255079299212,132.12255079299212,132.87576818896923,132.87576818896923,133.10224503895734,None,0,,,,,sub-sepehr,ses-main-lbase-l-1,run-1,grey,2024-04-25_11h40.20.679,VDT,2023.2.3,120.23206516120305,2024-04-25 11h40.48.048354 +0200,
./images_beh/Sphere_CCW-1.5_BG-grey_stim-white.png,0,117,117,117,133.14895933796652,,,,,,,,,,133.10297840699786,133.14895933796652,133.14895933796652,133.87554077699315,133.88990301894955,134.05977316998178,None,0,,,,,sub-sepehr,ses-main-lbase-l-1,run-1,grey,2024-04-25_11h40.20.679,VDT,2023.2.3,120.23206516120305,2024-04-25 11h40.48.048354 +0200,
./images_beh/Sphere_CW-1.5_BG-grey_stim-white.png,0,118,118,118,134.1087326699635,,,,,,,,,,134.06050517596304,134.12316714198096,134.12316714198096,134.87242667097598,134.87242667097598,135.1340805499931,['space'],0,135.11674347700318,135.11674347700318,0.5462424620054662,None,sub-sepehr,ses-main-lbase-l-1,run-1,grey,2024-04-25_11h40.20.679,VDT,2023.2.3,120.23206516120305,2024-04-25 11h40.48.048354 +0200,
./images_beh/Sphere_Ref_BG-grey_stim-white.png,0,119,119,119,135.17842470295727,,,,,,,,,,135.1353573499946,135.17842470295727,135.17842470295727,135.88620524597354,135.92381518497132,136.05081712797983,None,0,,,,,sub-sepehr,ses-main-lbase-l-1,run-1,grey,2024-04-25_11h40.20.679,VDT,2023.2.3,120.23206516120305,2024-04-25 11h40.48.048354 +0200,
./images_beh/Sphere_CCW-1.5_BG-grey_stim-white.png,0,120,120,120,136.0966395129799,,,,,,,,,,136.0516153999488,136.12245577195426,136.12245577195426,136.87322754896013,136.8657994819805,137.0727800289751,None,0,,,,,sub-sepehr,ses-main-lbase-l-1,run-1,grey,2024-04-25_11h40.20.679,VDT,2023.2.3,120.23206516120305,2024-04-25 11h40.48.048354 +0200,
./images_beh/Sphere_CW-1.5_BG-grey_stim-white.png,0,121,121,121,137.11695085495012,,,,,,,,,,137.07349719695048,137.1326831979677,137.1326831979677,137.87227547494695,137.87227547494695,138.0818421089789,None,0,,,,,sub-sepehr,ses-main-lbase-l-1,run-1,grey,2024-04-25_11h40.20.679,VDT,2023.2.3,120.23206516120305,2024-04-25 11h40.48.048354 +0200,
./images_beh/Sphere_Ref_BG-grey_stim-white.png,0,122,122,122,138.11445729999105,,,,,,,,,,138.08262175595155,138.12054127600277,138.12054127600277,138.87172658694908,138.86472443898674,139.1053199779708,None,0,,,,,sub-sepehr,ses-main-lbase-l-1,run-1,grey,2024-04-25_11h40.20.679,VDT,2023.2.3,120.23206516120305,2024-04-25 11h40.48.048354 +0200,
./images_beh/Sphere_CCW-1.5_BG-grey_stim-white.png,0,123,123,123,139.1474250369938,,,,,,,,,,139.10618902696297,139.1474250369938,139.1474250369938,139.8720397419529,139.88761999295093,140.0819202719722,None,0,,,,,sub-sepehr,ses-main-lbase-l-1,run-1,grey,2024-04-25_11h40.20.679,VDT,2023.2.3,120.23206516120305,2024-04-25 11h40.48.048354 +0200,
./images_beh/Sphere_CW-1.5_BG-grey_stim-white.png,0,124,124,124,140.1323024799931,,,,,,,,,,140.08269313100027,140.1323024799931,140.1323024799931,140.88268966699252,140.88268966699252,141.13140633900184,['space'],0,141.1301127029583,141.1301127029583,0.6577931910287589,None,sub-sepehr,ses-main-lbase-l-1,run-1,grey,2024-04-25_11h40.20.679,VDT,2023.2.3,120.23206516120305,2024-04-25 11h40.48.048354 +0200,
./images_beh/Sphere_CCW-1.5_BG-grey_stim-white.png,0,125,125,125,141.1759998019552,,,,,,,,,,141.1322941299877,141.1759998019552,141.1759998019552,141.87936548498692,141.9194586109952,142.09969910996733,None,0,,,,,sub-sepehr,ses-main-lbase-l-1,run-1,grey,2024-04-25_11h40.20.679,VDT,2023.2.3,120.23206516120305,2024-04-25 11h40.48.048354 +0200,
./images_beh/Sphere_CCW-1.5_BG-grey_stim-white.png,0,126,126,126,142.14808068197453,,,,,,,,,,142.10042723600054,142.14808068197453,142.14808068197453,142.8790728430031,142.89824872795725,143.08036198100308,None,0,,,,,sub-sepehr,ses-main-lbase-l-1,run-1,grey,2024-04-25_11h40.20.679,VDT,2023.2.3,120.23206516120305,2024-04-25 11h40.48.048354 +0200,
./images_beh/Sphere_CW-1.5_BG-grey_stim-white.png,0,127,127,127,143.1226172039751,,,,,,,,,,143.08116307499586,143.1283364709816,143.1283364709816,143.87894108396722,143.87894108396722,144.10246774199186,None,0,,,,,sub-sepehr,ses-main-lbase-l-1,run-1,grey,2024-04-25_11h40.20.679,VDT,2023.2.3,120.23206516120305,2024-04-25 11h40.48.048354 +0200,
./images_beh/Sphere_CW-1.5_BG-grey_stim-white.png,0,128,128,128,144.1460572569631,,,,,,,,,,144.103457820951,144.1460572569631,144.1460572569631,144.87822694599163,144.89477259694831,145.14574206998805,None,0,145.11681587295607,145.14481434196932,,,sub-sepehr,ses-main-lbase-l-1,run-1,grey,2024-04-25_11h40.20.679,VDT,2023.2.3,120.23206516120305,2024-04-25 11h40.48.048354 +0200,
./images_beh/Sphere_Ref_BG-grey_stim-white.png,0,129,129,129,145.19393838196993,,,,,,,,,,145.14674108597683,145.19393838196993,145.19393838196993,145.87748658296186,145.93351795896888,146.094903367979,['space'],0,,,0.5716282639768906,None,sub-sepehr,ses-main-lbase-l-1,run-1,grey,2024-04-25_11h40.20.679,VDT,2023.2.3,120.23206516120305,2024-04-25 11h40.48.048354 +0200,
./images_beh/Sphere_CCW-1.5_BG-grey_stim-white.png,0,130,130,130,146.1359843519749,,,,,,,,,,146.09618213196518,146.1359843519749,146.1359843519749,146.87692462699488,146.88304033898748,147.06712717795745,None,0,,,,,sub-sepehr,ses-main-lbase-l-1,run-1,grey,2024-04-25_11h40.20.679,VDT,2023.2.3,120.23206516120305,2024-04-25 11h40.48.048354 +0200,
./images_beh/Sphere_CW-1.5_BG-grey_stim-white.png,0,131,131,131,147.11061572795734,,,,,,,,,,147.06786211096914,147.1263631709735,147.1263631709735,147.87675788300112,147.86530751094688,148.06722755997907,None,0,,,,,sub-sepehr,ses-main-lbase-l-1,run-1,grey,2024-04-25_11h40.20.679,VDT,2023.2.3,120.23206516120305,2024-04-25 11h40.48.048354 +0200,
./images_beh/Sphere_CW-1.5_BG-grey_stim-white.png,0,132,132,132,148.1113680379931,,,,,,,,,,148.06793966295663,148.13178602495464,148.13178602495464,148.87611264298903,148.87611264298903,149.0503876209841,None,0,,,,,sub-sepehr,ses-main-lbase-l-1,run-1,grey,2024-04-25_11h40.20.679,VDT,2023.2.3,120.23206516120305,2024-04-25 11h40.48.048354 +0200,
./images_beh/Sphere_Ref_BG-grey_stim-white.png,0,133,133,133,149.09030941699166,,,,,,,,,,149.05097589897923,149.1261519129621,149.1261519129621,149.8754691729555,149.86434374196688,150.05045120895375,['space'],0,,,0.6075649450067431,None,sub-sepehr,ses-main-lbase-l-1,run-1,grey,2024-04-25_11h40.20.679,VDT,2023.2.3,120.23206516120305,2024-04-25 11h40.48.048354 +0200,
./images_beh/Sphere_CCW-1.5_BG-grey_stim-white.png,0,134,134,134,150.09818706696387,,,,,,,,,,150.0534449009574,150.13077235996025,150.13077235996025,150.87512961495668,150.87512961495668,151.09932532795938,None,0,,,,,sub-sepehr,ses-main-lbase-l-1,run-1,grey,2024-04-25_11h40.20.679,VDT,2023.2.3,120.23206516120305,2024-04-25 11h40.48.048354 +0200,
./images_beh/Sphere_CCW-1.5_BG-grey_stim-white.png,0,135,135,135,151.14912322495366,,,,,,,,,,151.1002192449523,151.14912322495366,151.14912322495366,151.87456338695483,151.89129237597808,152.06483336898964,None,0,,,,,sub-sepehr,ses-main-lbase-l-1,run-1,grey,2024-04-25_11h40.20.679,VDT,2023.2.3,120.23206516120305,2024-04-25 11h40.48.048354 +0200,
./images_beh/Sphere_CW-1.5_BG-grey_stim-white.png,0,136,136,136,152.1044272899744,,,,,,,,,,152.06583581696032,152.1297521069646,152.1297521069646,152.88113762199646,152.8742372279521,153.0750677989563,None,0,,,,,sub-sepehr,ses-main-lbase-l-1,run-1,grey,2024-04-25_11h40.20.679,VDT,2023.2.3,120.23206516120305,2024-04-25 11h40.48.048354 +0200,
./images_beh/Sphere_Ref_BG-grey_stim-white.png,0,137,137,137,153.11801400996046,,,,,,,,,,153.07626048498787,153.1231336859637,153.1231336859637,153.88093595695682,153.86280347895809,154.0580524239922,None,0,,,,,sub-sepehr,ses-main-lbase-l-1,run-1,grey,2024-04-25_11h40.20.679,VDT,2023.2.3,120.23206516120305,2024-04-25 11h40.48.048354 +0200,
./images_beh/Sphere_CCW-1.5_BG-grey_stim-white.png,0,138,138,138,154.10257592098787,,,,,,,,,,154.05884786194656,154.12951544695534,154.12951544695534,154.89240630395943,154.89240630395943,155.0575716109597,None,0,,,,,sub-sepehr,ses-main-lbase-l-1,run-1,grey,2024-04-25_11h40.20.679,VDT,2023.2.3,120.23206516120305,2024-04-25 11h40.48.048354 +0200,
./images_beh/Sphere_CW-1.5_BG-grey_stim-white.png,0,139,139,139,155.0971514369594,,,,,,,,,,155.05818464700133,155.12953085894696,155.12953085894696,155.88962781400187,155.87519837496802,156.04771922895452,None,0,,,,,sub-sepehr,ses-main-lbase-l-1,run-1,grey,2024-04-25_11h40.20.679,VDT,2023.2.3,120.23206516120305,2024-04-25 11h40.48.048354 +0200,
./images_beh/Sphere_CW-1.5_BG-grey_stim-white.png,0,140,140,140,156.09325656399596,,,,,,,,,,156.0484436439583,156.14198015298462,156.14198015298462,156.88046451297123,156.8886594439973,157.1296224919497,None,0,157.12884354096605,,,,sub-sepehr,ses-main-lbase-l-1,run-1,grey,2024-04-25_11h40.20.679,VDT,2023.2.3,120.23206516120305,2024-04-25 11h40.48.048354 +0200,
./images_beh/Sphere_Ref_BG-grey_stim-white.png,0,141,141,141,157.1735109819565,,,,,,,,,,157.13033171696588,157.1735109819565,157.1735109819565,157.87842134799575,157.92154379497515,158.0579198229825,['space'],0,,,0.6008395709795877,None,sub-sepehr,ses-main-lbase-l-1,run-1,grey,2024-04-25_11h40.20.679,VDT,2023.2.3,120.23206516120305,2024-04-25 11h40.48.048354 +0200,
./images_beh/Sphere_CCW-1.5_BG-grey_stim-white.png,0,142,142,142,158.1030111979926,,,,,,,,,,158.0588954659761,158.12642555398634,158.12642555398634,158.88800207298482,158.874491975992,159.0723852699739,None,0,,,,,sub-sepehr,ses-main-lbase-l-1,run-1,grey,2024-04-25_11h40.20.679,VDT,2023.2.3,120.23206516120305,2024-04-25 11h40.48.048354 +0200,
./images_beh/Sphere_CCW-1.5_BG-grey_stim-white.png,0,143,143,143,159.1153034559684,,,,,,,,,,159.073162605986,159.12051436898764,159.12051436898764,159.87510972999735,159.8583785389783,160.09135559399147,None,0,,,,,sub-sepehr,ses-main-lbase-l-1,run-1,grey,2024-04-25_11h40.20.679,VDT,2023.2.3,120.23206516120305,2024-04-25 11h40.48.048354 +0200,
./images_beh/Sphere_CW-1.5_BG-grey_stim-white.png,0,144,144,144,160.1396880079992,,,,,,,,,,160.09211020398652,160.1396880079992,160.1396880079992,160.87900864495896,160.88685272296425,161.07738030096516,None,0,,,,,sub-sepehr,ses-main-lbase-l-1,run-1,grey,2024-04-25_11h40.20.679,VDT,2023.2.3,120.23206516120305,2024-04-25 11h40.48.048354 +0200,
./images_beh/Sphere_CW-1.5_BG-grey_stim-white.png,0,145,145,145,161.11781075695762,,,,,,,,,,161.078043676971,161.12346590997186,161.12346590997186,161.87747814197792,161.86978252296103,162.04370258096606,None,0,,,,,sub-sepehr,ses-main-lbase-l-1,run-1,grey,2024-04-25_11h40.20.679,VDT,2023.2.3,120.23206516120305,2024-04-25 11h40.48.048354 +0200,
./images_beh/Sphere_Ref_BG-grey_stim-white.png,0,146,146,146,162.0874456219608,,,,,,,,,,162.04430620995117,162.12582340097288,162.12582340097288,162.88590307097184,162.8715643689502,163.07669161097147,None,0,,,,,sub-sepehr,ses-main-lbase-l-1,run-1,grey,2024-04-25_11h40.20.679,VDT,2023.2.3,120.23206516120305,2024-04-25 11h40.48.048354 +0200,
./images_beh/Sphere_CCW-1.5_BG-grey_stim-white.png,0,147,147,147,163.1195559859625,,,,,,,,,,163.07727326196618,163.13547720195493,163.13547720195493,163.87546145298984,163.87546145298984,164.05258518300252,None,0,,,,,sub-sepehr,ses-main-lbase-l-1,run-1,grey,2024-04-25_11h40.20.679,VDT,2023.2.3,120.23206516120305,2024-04-25 11h40.48.048354 +0200,
./images_beh/Sphere_CCW-1.5_BG-grey_stim-white.png,0,148,148,148,164.100433642976,,,,,,,,,,164.05331244698027,164.12391387595562,164.12391387595562,164.8754442789941,164.8754442789941,165.03545776900137,None,0,,,,,sub-sepehr,ses-main-lbase-l-1,run-1,grey,2024-04-25_11h40.20.679,VDT,2023.2.3,120.23206516120305,2024-04-25 11h40.48.048354 +0200,
./images_beh/Sphere_Ref_BG-grey_stim-white.png,0,149,149,149,165.07953041000292,,,,,,,,,,165.03636374598136,165.12456687894883,165.12456687894883,165.87302909995196,165.8672178069828,166.09110549697652,['space'],0,,,0.7139737260295078,None,sub-sepehr,ses-main-lbase-l-1,run-1,grey,2024-04-25_11h40.20.679,VDT,2023.2.3,120.23206516120305,2024-04-25 11h40.48.048354 +0200,
./images_beh/Sphere_CCW-1.5_BG-grey_stim-white.png,0,150,150,150,166.13279525598045,,,,,,,,,,166.09190705796937,166.13279525598045,166.13279525598045,166.87182665098226,166.87182665098226,167.06663900899002,None,0,,,,,sub-sepehr,ses-main-lbase-l-1,run-1,grey,2024-04-25_11h40.20.679,VDT,2023.2.3,120.23206516120305,2024-04-25 11h40.48.048354 +0200,
./images_beh/Sphere_CCW-1.5_BG-grey_stim-white.png,0,151,151,151,167.0986710829893,,,,,,,,,,167.06703683396336,167.1216136449948,167.1216136449948,167.87176659196848,167.86595901899273,168.08304363297066,None,0,,,,,sub-sepehr,ses-main-lbase-l-1,run-1,grey,2024-04-25_11h40.20.679,VDT,2023.2.3,120.23206516120305,2024-04-25 11h40.48.048354 +0200,
./images_beh/Sphere_Ref_BG-grey_stim-white.png,0,152,152,152,168.1171115289908,,,,,,,,,,168.08347277296707,168.1327057199669,168.1327057199669,168.87113667395897,168.87113667395897,169.0872615489643,None,0,,,,,sub-sepehr,ses-main-lbase-l-1,run-1,grey,2024-04-25_11h40.20.679,VDT,2023.2.3,120.23206516120305,2024-04-25 11h40.48.048354 +0200,
./images_beh/Sphere_CW-1.5_BG-grey_stim-white.png,0,153,153,153,169.1191386669525,,,,,,,,,,169.08777549199294,169.13159791898215,169.13159791898215,169.87051388499094,169.87051388499094,170.11570534994826,None,0,170.11500968498876,,,,sub-sepehr,ses-main-lbase-l-1,run-1,grey,2024-04-25_11h40.20.679,VDT,2023.2.3,120.23206516120305,2024-04-25 11h40.48.048354 +0200,
./images_beh/Sphere_CW-1.5_BG-grey_stim-white.png,0,154,154,154,170.15464211796643,,,,,,,,,,170.11642073700204,170.15464211796643,170.15464211796643,170.8714970489964,170.8976546219783,171.06509790295968,None,0,,,,,sub-sepehr,ses-main-lbase-l-1,run-1,grey,2024-04-25_11h40.20.679,VDT,2023.2.3,120.23206516120305,2024-04-25 11h40.48.048354 +0200,
./images_beh/Sphere_CCW-1.5_BG-grey_stim-white.png,0,155,155,155,171.11357452895027,,,,,,,,,,171.06577474495862,171.1310086339945,171.1310086339945,171.8710640699719,171.8710640699719,172.0991846229881,['space'],0,,,0.4750741330208257,None,sub-sepehr,ses-main-lbase-l-1,run-1,grey,2024-04-25_11h40.20.679,VDT,2023.2.3,120.23206516120305,2024-04-25 11h40.48.048354 +0200,
./images_beh/Sphere_CW-1.5_BG-grey_stim-white.png,0,156,156,156,172.14735700795427,,,,,,,,,,172.10017633700045,172.14735700795427,172.14735700795427,172.87252613395685,172.88779726595385,173.10510537598748,None,0,,,,,sub-sepehr,ses-main-lbase-l-1,run-1,grey,2024-04-25_11h40.20.679,VDT,2023.2.3,120.23206516120305,2024-04-25 11h40.48.048354 +0200,
./images_beh/Sphere_CW-1.5_BG-grey_stim-white.png,0,157,157,157,173.14928443497047,,,,,,,,,,173.1056957099936,173.14928443497047,173.14928443497047,173.87991026998498,173.89689976000227,174.07191908895038,None,0,,,,,sub-sepehr,ses-main-lbase-l-1,run-1,grey,2024-04-25_11h40.20.679,VDT,2023.2.3,120.23206516120305,2024-04-25 11h40.48.048354 +0200,
./images_beh/Sphere_CW-1.5_BG-grey_stim-white.png,0,158,158,158,174.11909671500325,,,,,,,,,,174.0726533199777,174.13022029399872,174.13022029399872,174.8796717209625,174.86951467895415,175.080806671991,None,0,,,,,sub-sepehr,ses-main-lbase-l-1,run-1,grey,2024-04-25_11h40.20.679,VDT,2023.2.3,120.23206516120305,2024-04-25 11h40.48.048354 +0200,
./images_beh/Sphere_Ref_BG-grey_stim-white.png,0,159,159,159,175.12685453798622,,,,,,,,,,175.0817633109982,175.13250864495058,175.13250864495058,175.8813500899705,175.8813500899705,176.04646836797474,None,0,,,,,sub-sepehr,ses-main-lbase-l-1,run-1,grey,2024-04-25_11h40.20.679,VDT,2023.2.3,120.23206516120305,2024-04-25 11h40.48.048354 +0200,
./images_beh/Sphere_CCW-1.5_BG-grey_stim-white.png,0,160,160,160,176.09385558299255,,,,,,,,,,176.04797140997835,176.1293136739987,176.1293136739987,176.87869460397633,176.86766777699813,177.1037193419761,None,0,,,,,sub-sepehr,ses-main-lbase-l-1,run-1,grey,2024-04-25_11h40.20.679,VDT,2023.2.3,120.23206516120305,2024-04-25 11h40.48.048354 +0200,
./images_beh/Sphere_CCW-1.5_BG-grey_stim-white.png,0,161,161,161,177.15471671900013,,,,,,,,,,177.10484153195284,177.15471671900013,177.15471671900013,177.88132535596378,177.9023715609801,178.06932511698687,None,0,,,,,sub-sepehr,ses-main-lbase-l-1,run-1,grey,2024-04-25_11h40.20.679,VDT,2023.2.3,120.23206516120305,2024-04-25 11h40.48.048354 +0200,
./images_beh/Sphere_CW-1.5_BG-grey_stim-white.png,0,162,162,162,178.11703321599634,,,,,,,,,,178.0700518079684,178.12781846895814,178.12781846895814,178.87728368397802,178.8668134789914,179.0851115299738,None,0,,,,,sub-sepehr,ses-main-lbase-l-1,run-1,grey,2024-04-25_11h40.20.679,VDT,2023.2.3,120.23206516120305,2024-04-25 11h40.48.048354 +0200,
./images_beh/Sphere_CW-1.5_BG-grey_stim-white.png,0,163,163,163,179.13320851296885,,,,,,,,,,179.08585095097078,179.13320851296885,179.13320851296885,179.87706717598485,179.87706717598485,180.04507656395435,None,0,,,,,sub-sepehr,ses-main-lbase-l-1,run-1,grey,2024-04-25_11h40.20.679,VDT,2023.2.3,120.23206516120305,2024-04-25 11h40.48.048354 +0200,
./images_beh/Sphere_CCW-1.5_BG-grey_stim-white.png,0,164,164,164,180.09157360898098,,,,,,,,,,180.04599131795112,180.12684525200166,180.12684525200166,180.87679833895527,180.86535266198916,181.07776177994674,None,0,,,,,sub-sepehr,ses-main-lbase-l-1,run-1,grey,2024-04-25_11h40.20.679,VDT,2023.2.3,120.23206516120305,2024-04-25 11h40.48.048354 +0200,
./images_beh/Sphere_CW-1.5_BG-grey_stim-white.png,0,165,165,165,181.12169212696608,,,,,,,,,,181.078464102,181.12682065495756,181.12682065495756,181.87575311295222,181.86562012694776,182.13157887995476,['space'],0,182.11396692699054,182.11396692699054,0.5917250650236383,None,sub-sepehr,ses-main-lbase-l-1,run-1,grey,2024-04-25_11h40.20.679,VDT,2023.2.3,120.23206516120305,2024-04-25 11h40.48.048354 +0200,
./images_beh/Sphere_CCW-1.5_BG-grey_stim-white.png,0,166,166,166,182.1738951279549,,,,,,,,,,182.1324253139901,182.1738951279549,182.1738951279549,182.87547223997535,182.92786893696757,183.11442933499347,None,0,183.11378189199604,,,,sub-sepehr,ses-main-lbase-l-1,run-1,grey,2024-04-25_11h40.20.679,VDT,2023.2.3,120.23206516120305,2024-04-25 11h40.48.048354 +0200,
./images_beh/Sphere_Ref_BG-grey_stim-white.png,0,167,167,167,183.15629291697405,,,,,,,,,,183.11499298899435,183.15629291697405,183.15629291697405,183.87482913397253,183.89817285898607,184.09876673395047,None,0,,,,,sub-sepehr,ses-main-lbase-l-1,run-1,grey,2024-04-25_11h40.20.679,VDT,2023.2.3,120.23206516120305,2024-04-25 11h40.48.048354 +0200,
./images_beh/Sphere_CW-1.5_BG-grey_stim-white.png,0,168,168,168,184.1396722359932,,,,,,,,,,184.09935685095843,184.1396722359932,184.1396722359932,184.87469360599061,184.8816005709814,185.1089444370009,None,0,,,,,sub-sepehr,ses-main-lbase-l-1,run-1,grey,2024-04-25_11h40.20.679,VDT,2023.2.3,120.23206516120305,2024-04-25 11h40.48.048354 +0200,
./images_beh/Sphere_CW-1.5_BG-grey_stim-white.png,0,169,169,169,185.15398626495153,,,,,,,,,,185.1098210249911,185.15398626495153,185.15398626495153,185.87394150998443,185.89693524397444,186.04124032397522,None,0,,,,,sub-sepehr,ses-main-lbase-l-1,run-1,grey,2024-04-25_11h40.20.679,VDT,2023.2.3,120.23206516120305,2024-04-25 11h40.48.048354 +0200,
./images_beh/Sphere_Ref_BG-grey_stim-white.png,0,170,170,170,186.0876185479574,,,,,,,,,,186.0424516959465,186.1299863680033,186.1299863680033,186.87952223897446,186.87316435395041,187.08023305499228,None,0,,,,,sub-sepehr,ses-main-lbase-l-1,run-1,grey,2024-04-25_11h40.20.679,VDT,2023.2.3,120.23206516120305,2024-04-25 11h40.48.048354 +0200,
./images_beh/Sphere_CCW-1.5_BG-grey_stim-white.png,0,171,171,171,187.12351999495877,,,,,,,,,,187.08093560597626,187.1292083299486,187.1292083299486,187.88058542297222,187.87336184899323,188.08997381100198,None,0,,,,,sub-sepehr,ses-main-lbase-l-1,run-1,grey,2024-04-25_11h40.20.679,VDT,2023.2.3,120.23206516120305,2024-04-25 11h40.48.048354 +0200,
./images_beh/Sphere_CCW-1.5_BG-grey_stim-white.png,0,172,172,172,188.12373981397832,,,,,,,,,,188.09039283695165,188.12919232499553,188.12919232499553,188.87983634095872,188.87259082496166,189.0923094789614,None,0,,,,,sub-sepehr,ses-main-lbase-l-1,run-1,grey,2024-04-25_11h40.20.679,VDT,2023.2.3,120.23206516120305,2024-04-25 11h40.48.048354 +0200,
./images_beh/Sphere_Ref_BG-grey_stim-white.png,0,173,173,173,189.13701837998815,,,,,,,,,,189.09303838794585,189.13701837998815,189.13701837998815,189.88036506000208,189.88036506000208,190.09651386499172,None,0,,,,,sub-sepehr,ses-main-lbase-l-1,run-1,grey,2024-04-25_11h40.20.679,VDT,2023.2.3,120.23206516120305,2024-04-25 11h40.48.048354 +0200,
./images_beh/Sphere_CW-1.5_BG-grey_stim-white.png,0,174,174,174,190.14422446698882,,,,,,,,,,190.09733467595652,190.14422446698882,190.14422446698882,190.87878739094594,190.8880501340027,191.12486941798124,['space'],0,,,0.6379374949610792,None,sub-sepehr,ses-main-lbase-l-1,run-1,grey,2024-04-25_11h40.20.679,VDT,2023.2.3,120.23206516120305,2024-04-25 11h40.48.048354 +0200,
./images_beh/Sphere_CW-1.5_BG-grey_stim-white.png,0,175,175,175,191.1725752899656,,,,,,,,,,191.12583242094843,191.1725752899656,191.1725752899656,191.87924622296123,191.92103053396568,192.10613700497197,None,0,,,,,sub-sepehr,ses-main-lbase-l-1,run-1,grey,2024-04-25_11h40.20.679,VDT,2023.2.3,120.23206516120305,2024-04-25 11h40.48.048354 +0200,
./images_beh/Sphere_Ref_BG-grey_stim-white.png,0,176,176,176,192.1530605199514,,,,,,,,,,192.10692766396096,192.1530605199514,192.1530605199514,192.8788829779951,192.89407368097454,193.0780571399955,None,0,,,,,sub-sepehr,ses-main-lbase-l-1,run-1,grey,2024-04-25_11h40.20.679,VDT,2023.2.3,120.23206516120305,2024-04-25 11h40.48.048354 +0200,
./images_beh/Sphere_CCW-1.5_BG-grey_stim-white.png,0,177,177,177,193.1195317590027,,,,,,,,,,193.07873068697518,193.125378445955,193.125378445955,193.88673044898314,193.87306040595286,194.0773378049489,None,0,,,,,sub-sepehr,ses-main-lbase-l-1,run-1,grey,2024-04-25_11h40.20.679,VDT,2023.2.3,120.23206516120305,2024-04-25 11h40.48.048354 +0200,
./images_beh/Sphere_CCW-1.5_BG-grey_stim-white.png,0,178,178,178,194.12043792399345,,,,,,,,,,194.0778405899764,194.12583453097614,194.12583453097614,194.8773180139833,194.8696787339868,195.11049576697405,None,0,,,,,sub-sepehr,ses-main-lbase-l-1,run-1,grey,2024-04-25_11h40.20.679,VDT,2023.2.3,120.23206516120305,2024-04-25 11h40.48.048354 +0200,
./images_beh/Sphere_CCW-1.5_BG-grey_stim-white.png,0,179,179,179,195.1582098789513,,,,,,,,,,195.11121742095565,195.1582098789513,195.1582098789513,195.87732341897208,195.90265924099367,196.1387456629891,None,0,196.13790755998343,,,,sub-sepehr,ses-main-lbase-l-1,run-1,grey,2024-04-25_11h40.20.679,VDT,2023.2.3,120.23206516120305,2024-04-25 11h40.48.048354 +0200,
./images_beh/Sphere_CW-1.5_BG-grey_stim-white.png,0,180,180,180,196.1852164999582,,,,,,,,,,196.13948841096135,196.1852164999582,196.1852164999582,196.88804804196116,196.92540339095285,197.07586712797638,None,0,,,,,sub-sepehr,ses-main-lbase-l-1,run-1,grey,2024-04-25_11h40.20.679,VDT,2023.2.3,120.23206516120305,2024-04-25 11h40.48.048354 +0200,
./images_beh/Sphere_CW-1.5_BG-grey_stim-white.png,0,181,181,181,197.12336261296878,,,,,,,,,,197.07661671796814,197.13475954899332,197.13475954899332,197.87453323998488,197.87453323998488,198.11904129298637,None,0,,,,,sub-sepehr,ses-main-lbase-l-1,run-1,grey,2024-04-25_11h40.20.679,VDT,2023.2.3,120.23206516120305,2024-04-25 11h40.48.048354 +0200,
./images_beh/Sphere_Ref_BG-grey_stim-white.png,0,182,182,182,198.16523082298227,,,,,,,,,,198.12015001598047,198.16523082298227,198.16523082298227,198.8743256930029,198.90658878500108,199.12219026696403,['space'],0,199.1217844359926,,0.5934469149797224,None,sub-sepehr,ses-main-lbase-l-1,run-1,grey,2024-04-25_11h40.20.679,VDT,2023.2.3,120.23206516120305,2024-04-25 11h40.48.048354 +0200,
./images_beh/Sphere_CCW-1.5_BG-grey_stim-white.png,0,183,183,183,199.15716272598365,,,,,,,,,,199.12263085797895,199.15716272598365,199.15716272598365,199.87495605595177,199.90021321497625,200.06804233498406,None,0,,,,,sub-sepehr,ses-main-lbase-l-1,run-1,grey,2024-04-25_11h40.20.679,VDT,2023.2.3,120.23206516120305,2024-04-25 11h40.48.048354 +0200,
./images_beh/Sphere_CCW-1.5_BG-grey_stim-white.png,0,184,184,184,200.14118679595413,,,,,,,,,,200.0692158579477,200.14118679595413,200.14118679595413,200.87237257999368,200.8887931489735,201.08620989596238,None,0,,,,,sub-sepehr,ses-main-lbase-l-1,run-1,grey,2024-04-25_11h40.20.679,VDT,2023.2.3,120.23206516120305,2024-04-25 11h40.48.048354 +0200,
./images_beh/Sphere_CW-1.5_BG-grey_stim-white.png,0,185,185,185,201.13405891496222,,,,,,,,,,201.08698428794742,201.13405891496222,201.13405891496222,201.87383407598827,201.88312173896702,202.1032914799871,None,0,,,,,sub-sepehr,ses-main-lbase-l-1,run-1,grey,2024-04-25_11h40.20.679,VDT,2023.2.3,120.23206516120305,2024-04-25 11h40.48.048354 +0200,
./images_beh/Sphere_Ref_BG-grey_stim-white.png,0,186,186,186,202.15186496899696,,,,,,,,,,202.10407149000093,202.15186496899696,202.15186496899696,202.8734174259589,202.8985826059943,203.06900841899915,None,0,,,,,sub-sepehr,ses-main-lbase-l-1,run-1,grey,2024-04-25_11h40.20.679,VDT,2023.2.3,120.23206516120305,2024-04-25 11h40.48.048354 +0200,
./images_beh/Sphere_CW-1.5_BG-grey_stim-white.png,0,187,187,187,203.1162873619469,,,,,,,,,,203.06973534595454,203.12208557897247,203.12208557897247,203.88400770898443,203.88400770898443,204.06567874294706,['space'],0,,,0.5154877200257033,None,sub-sepehr,ses-main-lbase-l-1,run-1,grey,2024-04-25_11h40.20.679,VDT,2023.2.3,120.23206516120305,2024-04-25 11h40.48.048354 +0200,
./images_beh/Sphere_CCW-1.5_BG-grey_stim-white.png,0,188,188,188,204.10822365497006,,,,,,,,,,204.06686183199054,204.12069937499473,204.12069937499473,204.87165977596305,204.86456958198687,205.08484792197123,None,0,,,,,sub-sepehr,ses-main-lbase-l-1,run-1,grey,2024-04-25_11h40.20.679,VDT,2023.2.3,120.23206516120305,2024-04-25 11h40.48.048354 +0200,
./images_beh/Sphere_CW-1.5_BG-grey_stim-white.png,0,189,189,189,205.13238832599018,,,,,,,,,,205.0856021149666,205.13238832599018,205.13238832599018,205.87165239296155,205.88294738397235,206.07206162798684,None,0,,,,,sub-sepehr,ses-main-lbase-l-1,run-1,grey,2024-04-25_11h40.20.679,VDT,2023.2.3,120.23206516120305,2024-04-25 11h40.48.048354 +0200,
./images_beh/Sphere_CCW-1.5_BG-grey_stim-white.png,0,190,190,190,206.11951075599063,,,,,,,,,,206.07278365798993,206.13040495396126,206.13040495396126,206.88269248098368,206.86943205900025,207.08352511096746,None,0,,,,,sub-sepehr,ses-main-lbase-l-1,run-1,grey,2024-04-25_11h40.20.679,VDT,2023.2.3,120.23206516120305,2024-04-25 11h40.48.048354 +0200,
./images_beh/Sphere_CW-1.5_BG-grey_stim-white.png,0,191,191,191,207.12912733497797,,,,,,,,,,207.0842481039581,207.12912733497797,207.12912733497797,207.87989012495382,207.86849103396526,208.08010204596212,None,0,,,,,sub-sepehr,ses-main-lbase-l-1,run-1,grey,2024-04-25_11h40.20.679,VDT,2023.2.3,120.23206516120305,2024-04-25 11h40.48.048354 +0200,
./images_beh/Sphere_Ref_BG-grey_stim-white.png,0,192,192,192,208.1220872440026,,,,,,,,,,208.0810493779718,208.12890760297887,208.12890760297887,208.8787418169668,208.8670213399455,209.0688420169754,['space'],0,,,0.6924267679569311,None,sub-sepehr,ses-main-lbase-l-1,run-1,grey,2024-04-25_11h40.20.679,VDT,2023.2.3,120.23206516120305,2024-04-25 11h40.48.048354 +0200,
./images_beh/Sphere_CCW-1.5_BG-grey_stim-white.png,0,193,193,193,209.1140462619951,,,,,,,,,,209.06961142498767,209.12841839698376,209.12841839698376,209.87872558296658,209.86757348797983,210.04580304695992,None,0,,,,,sub-sepehr,ses-main-lbase-l-1,run-1,grey,2024-04-25_11h40.20.679,VDT,2023.2.3,120.23206516120305,2024-04-25 11h40.48.048354 +0200,
./images_beh/Sphere_CCW-1.5_BG-grey_stim-white.png,0,194,194,194,210.08769279299304,,,,,,,,,,210.04683242895408,210.12836105498718,210.12836105498718,210.8777920359862,210.8671292119543,211.07921568094753,None,0,,,,,sub-sepehr,ses-main-lbase-l-1,run-1,grey,2024-04-25_11h40.20.679,VDT,2023.2.3,120.23206516120305,2024-04-25 11h40.48.048354 +0200,
./images_beh/Sphere_Ref_BG-grey_stim-white.png,0,195,195,195,211.12579289195128,,,,,,,,,,211.08012053900165,211.13171290798346,211.13171290798346,211.88007273100084,211.88007273100084,212.08402394899167,['space'],0,,,0.6182429259642959,None,sub-sepehr,ses-main-lbase-l-1,run-1,grey,2024-04-25_11h40.20.679,VDT,2023.2.3,120.23206516120305,2024-04-25 11h40.48.048354 +0200,
./images_beh/Sphere_CW-1.5_BG-grey_stim-white.png,0,196,196,196,212.1271131419926,,,,,,,,,,212.08476798597258,212.1271131419926,212.1271131419926,212.8770137609681,212.86569700599648,213.06114907498704,None,0,,,,,sub-sepehr,ses-main-lbase-l-1,run-1,grey,2024-04-25_11h40.20.679,VDT,2023.2.3,120.23206516120305,2024-04-25 11h40.48.048354 +0200,
./images_beh/Sphere_CCW-1.5_BG-grey_stim-white.png,0,197,197,197,213.10220984800253,,,,,,,,,,213.06200113199884,213.1267160489806,213.1267160489806,213.8763914819574,213.86485323897796,214.10002769494895,None,0,,,,,sub-sepehr,ses-main-lbase-l-1,run-1,grey,2024-04-25_11h40.20.679,VDT,2023.2.3,120.23206516120305,2024-04-25 11h40.48.048354 +0200,
./images_beh/Sphere_CW-1.5_BG-grey_stim-white.png,0,198,198,198,214.14567880699178,,,,,,,,,,214.1007554239477,214.14567880699178,214.14567880699178,214.87568328896305,214.8930797079811,215.09989218600094,None,0,,,,,sub-sepehr,ses-main-lbase-l-1,run-1,grey,2024-04-25_11h40.20.679,VDT,2023.2.3,120.23206516120305,2024-04-25 11h40.48.048354 +0200,
./images_beh/Sphere_CCW-1.5_BG-grey_stim-white.png,0,199,199,199,215.14306162897265,,,,,,,,,,215.10063429694856,215.14306162897265,215.14306162897265,215.87535952799954,215.89173136197496,216.059137315955,['space'],0,,,0.6462371239904314,None,sub-sepehr,ses-main-lbase-l-1,run-1,grey,2024-04-25_11h40.20.679,VDT,2023.2.3,120.23206516120305,2024-04-25 11h40.48.048354 +0200,
./images_beh/Sphere_Ref_BG-grey_stim-white.png,0,200,200,200,216.10257455694955,,,,,,,,,,216.06027191499015,216.13070058298763,216.13070058298763,216.87472696299665,216.87472696299665,217.0654405099922,None,0,,,,,sub-sepehr,ses-main-lbase-l-1,run-1,grey,2024-04-25_11h40.20.679,VDT,2023.2.3,120.23206516120305,2024-04-25 11h40.48.048354 +0200,
./images_beh/Sphere_CCW-1.5_BG-grey_stim-white.png,0,201,201,201,217.1100176939508,,,,,,,,,,217.06622028996935,217.13012949295808,217.13012949295808,217.88020267995307,217.87415382795734,218.07507601298857,None,0,,,,,sub-sepehr,ses-main-lbase-l-1,run-1,grey,2024-04-25_11h40.20.679,VDT,2023.2.3,120.23206516120305,2024-04-25 11h40.48.048354 +0200,
./images_beh/Sphere_CCW-1.5_BG-grey_stim-white.png,0,202,202,202,218.11853452399373,,,,,,,,,,218.076149548986,218.12333219696302,218.12333219696302,218.88029916299274,218.8625278719701,219.0801798249595,None,0,,,,,sub-sepehr,ses-main-lbase-l-1,run-1,grey,2024-04-25_11h40.20.679,VDT,2023.2.3,120.23206516120305,2024-04-25 11h40.48.048354 +0200,
./images_beh/Sphere_Ref_BG-grey_stim-white.png,0,203,203,203,219.12038166599814,,,,,,,,,,219.08086548896972,219.14019961300073,219.14019961300073,219.8791208989569,219.8791208989569,220.05725767096737,None,0,,,,,sub-sepehr,ses-main-lbase-l-1,run-1,grey,2024-04-25_11h40.20.679,VDT,2023.2.3,120.23206516120305,2024-04-25 11h40.48.048354 +0200,
./images_beh/Sphere_CW-1.5_BG-grey_stim-white.png,0,204,204,204,220.10024610796245,,,,,,,,,,220.05825037095929,220.12820811895654,220.12820811895654,220.87975058698794,220.8728278709459,221.06223954295274,None,0,,,,,sub-sepehr,ses-main-lbase-l-1,run-1,grey,2024-04-25_11h40.20.679,VDT,2023.2.3,120.23206516120305,2024-04-25 11h40.48.048354 +0200,
./images_beh/Sphere_CW-1.5_BG-grey_stim-white.png,0,205,205,205,221.09921276196837,,,,,,,,,,221.06285196298268,221.12769670895068,221.12769670895068,221.8795258049504,221.87261527596274,222.14002918597544,None,0,222.125112951966,222.125112951966,,,sub-sepehr,ses-main-lbase-l-1,run-1,grey,2024-04-25_11h40.20.679,VDT,2023.2.3,120.23206516120305,2024-04-25 11h40.48.048354 +0200,
./images_beh/Sphere_CCW-1.5_BG-grey_stim-white.png,0,206,206,206,222.18804035399808,,,,,,,,,,222.1408672889811,222.18804035399808,222.18804035399808,222.87943364295643,222.9287039449555,223.09620598697802,None,0,,,,,sub-sepehr,ses-main-lbase-l-1,run-1,grey,2024-04-25_11h40.20.679,VDT,2023.2.3,120.23206516120305,2024-04-25 11h40.48.048354 +0200,
./images_beh/Sphere_Ref_BG-grey_stim-white.png,0,207,207,207,223.14530377596384,,,,,,,,,,223.09692771499977,223.14530377596384,223.14530377596384,223.87873725796817,223.88795984495664,224.07862703996943,None,0,,,,,sub-sepehr,ses-main-lbase-l-1,run-1,grey,2024-04-25_11h40.20.679,VDT,2023.2.3,120.23206516120305,2024-04-25 11h40.48.048354 +0200,
./images_beh/Sphere_CW-1.5_BG-grey_stim-white.png,0,208,208,208,224.12527371698525,,,,,,,,,,224.07966389495414,224.13748192595085,224.13748192595085,224.87717080494622,224.87717080494622,225.09462575998623,None,0,,,,,sub-sepehr,ses-main-lbase-l-1,run-1,grey,2024-04-25_11h40.20.679,VDT,2023.2.3,120.23206516120305,2024-04-25 11h40.48.048354 +0200,
./images_beh/Sphere_CCW-1.5_BG-grey_stim-white.png,0,209,209,209,225.1364932699944,,,,,,,,,,225.095203610952,225.1364932699944,225.1364932699944,225.87714697699994,225.87714697699994,226.04439259995706,None,0,,,,,sub-sepehr,ses-main-lbase-l-1,run-1,grey,2024-04-25_11h40.20.679,VDT,2023.2.3,120.23206516120305,2024-04-25 11h40.48.048354 +0200,
./images_beh/Sphere_CCW-1.5_BG-grey_stim-white.png,0,210,210,210,226.09075765695889,,,,,,,,,,226.04514182795538,226.12663533195155,226.12663533195155,226.8766920119524,226.8698592679575,227.07674952299567,None,0,,,,,sub-sepehr,ses-main-lbase-l-1,run-1,grey,2024-04-25_11h40.20.679,VDT,2023.2.3,120.23206516120305,2024-04-25 11h40.48.048354 +0200,
./images_beh/Sphere_CW-1.5_BG-grey_stim-white.png,0,211,211,211,227.1220518509508,,,,,,,,,,227.07748205499956,227.13611119997222,227.13611119997222,227.87705547799123,227.87705547799123,228.10229082900332,None,0,,,,,sub-sepehr,ses-main-lbase-l-1,run-1,grey,2024-04-25_11h40.20.679,VDT,2023.2.3,120.23206516120305,2024-04-25 11h40.48.048354 +0200,
./images_beh/Sphere_Ref_BG-grey_stim-white.png,0,212,212,212,228.13574948295718,,,,,,,,,,228.1027760799625,228.13574948295718,228.13574948295718,228.8756328189629,228.8756328189629,229.0591601729975,None,0,,,,,sub-sepehr,ses-main-lbase-l-1,run-1,grey,2024-04-25_11h40.20.679,VDT,2023.2.3,120.23206516120305,2024-04-25 11h40.48.048354 +0200,
./images_beh/Sphere_CW-1.5_BG-grey_stim-white.png,0,213,213,213,229.0984662050032,,,,,,,,,,229.05975110497093,229.1250249229488,229.1250249229488,229.87396183394594,229.86792087199865,230.0919273669715,['space'],0,,,0.6487238180125132,None,sub-sepehr,ses-main-lbase-l-1,run-1,grey,2024-04-25_11h40.20.679,VDT,2023.2.3,120.23206516120305,2024-04-25 11h40.48.048354 +0200,
./images_beh/Sphere_CCW-1.5_BG-grey_stim-white.png,0,214,214,214,230.13764845597325,,,,,,,,,,230.09286014596,230.13764845597325,230.13764845597325,230.87548253295245,230.88444552494911,231.1087349319714,None,0,,,,,sub-sepehr,ses-main-lbase-l-1,run-1,grey,2024-04-25_11h40.20.679,VDT,2023.2.3,120.23206516120305,2024-04-25 11h40.48.048354 +0200,
./images_beh/Sphere_CW-1.5_BG-grey_stim-white.png,0,215,215,215,231.15365222695982,,,,,,,,,,231.10932268598117,231.15365222695982,231.15365222695982,231.87442544096848,231.90040248795412,232.10802204499487,None,0,,,,,sub-sepehr,ses-main-lbase-l-1,run-1,grey,2024-04-25_11h40.20.679,VDT,2023.2.3,120.23206516120305,2024-04-25 11h40.48.048354 +0200,
./images_beh/Sphere_CW-1.5_BG-grey_stim-white.png,0,216,216,216,232.1532763579744,,,,,,,,,,232.1086114999489,232.1532763579744,232.1532763579744,232.87569908396108,232.899710683967,233.10126267099986,None,0,,,,,sub-sepehr,ses-main-lbase-l-1,run-1,grey,2024-04-25_11h40.20.679,VDT,2023.2.3,120.23206516120305,2024-04-25 11h40.48.048354 +0200,
./images_beh/Sphere_CW-1.5_BG-grey_stim-white.png,0,217,217,217,233.147654055967,,,,,,,,,,233.10200878995238,233.147654055967,233.147654055967,233.87290123297134,233.88893047499005,234.0727227499592,['space'],0,,,0.6740564279607497,None,sub-sepehr,ses-main-lbase-l-1,run-1,grey,2024-04-25_11h40.20.679,VDT,2023.2.3,120.23206516120305,2024-04-25 11h40.48.048354 +0200,
./images_beh/Sphere_Ref_BG-grey_stim-white.png,0,218,218,218,234.11401167395525,,,,,,,,,,234.0735231739818,234.11960420798277,234.11960420798277,234.87335929396795,234.86603162897518,235.08534256694838,None,0,,,,,sub-sepehr,ses-main-lbase-l-1,run-1,grey,2024-04-25_11h40.20.679,VDT,2023.2.3,120.23206516120305,2024-04-25 11h40.48.048354 +0200,
./images_beh/Sphere_CCW-1.5_BG-grey_stim-white.png,0,219,219,219,235.13042497599963,,,,,,,,,,235.08593158295844,235.13042497599963,235.13042497599963,235.87220755894668,235.87220755894668,236.08495480095735,None,0,,,,,sub-sepehr,ses-main-lbase-l-1,run-1,grey,2024-04-25_11h40.20.679,VDT,2023.2.3,120.23206516120305,2024-04-25 11h40.48.048354 +0200,
./images_beh/Sphere_CCW-1.5_BG-grey_stim-white.png,0,220,220,220,236.1304891439504,,,,,,,,,,236.08569897298003,236.1304891439504,236.1304891439504,236.8721341159544,236.8721341159544,237.0660251529771,None,0,,,,,sub-sepehr,ses-main-lbase-l-1,run-1,grey,2024-04-25_11h40.20.679,VDT,2023.2.3,120.23206516120305,2024-04-25 11h40.48.048354 +0200,
./images_beh/Sphere_CW-1.5_BG-grey_stim-white.png,0,221,221,221,237.10972365399357,,,,,,,,,,237.06682915595593,237.13122809596825,237.13122809596825,237.8715278939926,237.8715278939926,238.07145012897672,None,0,,,,,sub-sepehr,ses-main-lbase-l-1,run-1,grey,2024-04-25_11h40.20.679,VDT,2023.2.3,120.23206516120305,2024-04-25 11h40.48.048354 +0200,
./images_beh/Sphere_Ref_BG-grey_stim-white.png,0,222,222,222,238.11428660497768,,,,,,,,,,238.0720365709858,238.12042752897833,238.12042752897833,238.88274950697087,238.88274950697087,239.04812305700034,None,0,,,,,sub-sepehr,ses-main-lbase-l-1,run-1,grey,2024-04-25_11h40.20.679,VDT,2023.2.3,120.23206516120305,2024-04-25 11h40.48.048354 +0200,
./images_beh/Sphere_CW-1.5_BG-grey_stim-white.png,0,223,223,223,239.09407939499943,,,,,,,,,,239.04893461900065,239.1203166579944,239.1203166579944,239.8800644109724,239.8633561099996,240.0872704909998,None,0,,,,,sub-sepehr,ses-main-lbase-l-1,run-1,grey,2024-04-25_11h40.20.679,VDT,2023.2.3,120.23206516120305,2024-04-25 11h40.48.048354 +0200,
./images_beh/Sphere_CCW-1.5_BG-grey_stim-white.png,0,224,224,224,240.1336005309713,,,,,,,,,,240.0881356219761,240.1336005309713,240.1336005309713,240.87952407397097,240.8868394899764,241.07061483198777,None,0,,,,,sub-sepehr,ses-main-lbase-l-1,run-1,grey,2024-04-25_11h40.20.679,VDT,2023.2.3,120.23206516120305,2024-04-25 11h40.48.048354 +0200,
./images_beh/Sphere_CCW-1.5_BG-grey_stim-white.png,0,225,225,225,241.11362694000127,,,,,,,,,,241.07167628098978,241.1348527329974,241.1348527329974,241.88207400299143,241.88207400299143,242.09657942695776,None,0,,,,,sub-sepehr,ses-main-lbase-l-1,run-1,grey,2024-04-25_11h40.20.679,VDT,2023.2.3,120.23206516120305,2024-04-25 11h40.48.048354 +0200,
./images_beh/Sphere_Ref_BG-grey_stim-white.png,0,226,226,226,242.14565506594954,,,,,,,,,,242.0973355069873,242.14565506594954,242.14565506594954,242.87828720599646,242.8848023119499,243.0630624149926,None,0,,,,,sub-sepehr,ses-main-lbase-l-1,run-1,grey,2024-04-25_11h40.20.679,VDT,2023.2.3,120.23206516120305,2024-04-25 11h40.48.048354 +0200,
./images_beh/Sphere_CW-1.5_BG-grey_stim-white.png,0,227,227,227,243.10999750194605,,,,,,,,,,243.06393952399958,243.12855583697092,243.12855583697092,243.89479875995312,243.8810524599976,244.11258833500324,None,0,,,,,sub-sepehr,ses-main-lbase-l-1,run-1,grey,2024-04-25_11h40.20.679,VDT,2023.2.3,120.23206516120305,2024-04-25 11h40.48.048354 +0200,
./images_beh/Sphere_CCW-1.5_BG-grey_stim-white.png,0,228,228,228,244.15728665998904,,,,,,,,,,244.11333962797653,244.15728665998904,244.15728665998904,244.8775911849807,244.90108769899234,245.07860042195534,None,0,,,,,sub-sepehr,ses-main-lbase-l-1,run-1,grey,2024-04-25_11h40.20.679,VDT,2023.2.3,120.23206516120305,2024-04-25 11h40.48.048354 +0200,
./images_beh/Sphere_CW-1.5_BG-grey_stim-white.png,0,229,229,229,245.12006801896496,,,,,,,,,,245.07920265896246,245.12736521096667,245.12736521096667,245.87704711599508,245.86668145499425,246.0777044769493,None,0,,,,,sub-sepehr,ses-main-lbase-l-1,run-1,grey,2024-04-25_11h40.20.679,VDT,2023.2.3,120.23206516120305,2024-04-25 11h40.48.048354 +0200,
./images_beh/Sphere_Ref_BG-grey_stim-white.png,0,230,230,230,246.11937549896538,,,,,,,,,,246.07834898296278,246.1269367649802,246.1269367649802,246.87604366597952,246.86548451398266,247.13189413998043,['space'],0,247.11466695799027,247.11466695799027,0.5847331089898944,None,sub-sepehr,ses-main-lbase-l-1,run-1,grey,2024-04-25_11h40.20.679,VDT,2023.2.3,120.23206516120305,2024-04-25 11h40.48.048354 +0200,
./images_beh/Sphere_CW-1.5_BG-grey_stim-white.png,0,231,231,231,247.1778758879518,,,,,,,,,,247.13285939197522,247.1778758879518,247.1778758879518,247.8756141049671,247.92565457196906,248.09269233397208,None,0,,,,,sub-sepehr,ses-main-lbase-l-1,run-1,grey,2024-04-25_11h40.20.679,VDT,2023.2.3,120.23206516120305,2024-04-25 11h40.48.048354 +0200,
./images_beh/Sphere_CCW-1.5_BG-grey_stim-white.png,0,232,232,232,248.12991763697937,,,,,,,,,,248.09356243599905,248.12991763697937,248.12991763697937,248.8753337939852,248.8753337939852,249.11518150597112,None,0,249.11439141997835,,,,sub-sepehr,ses-main-lbase-l-1,run-1,grey,2024-04-25_11h40.20.679,VDT,2023.2.3,120.23206516120305,2024-04-25 11h40.48.048354 +0200,
./images_beh/Sphere_CCW-1.5_BG-grey_stim-white.png,0,233,233,233,249.16174012300326,,,,,,,,,,249.11591381795006,249.16174012300326,249.16174012300326,249.8748004109948,249.90799741999945,250.0641945079551,None,0,,,,,sub-sepehr,ses-main-lbase-l-1,run-1,grey,2024-04-25_11h40.20.679,VDT,2023.2.3,120.23206516120305,2024-04-25 11h40.48.048354 +0200,
./images_beh/Sphere_CCW-1.5_BG-grey_stim-white.png,0,234,234,234,250.10747512395028,,,,,,,,,,250.0650191809982,250.12968559499132,250.12968559499132,250.88126430596458,250.88126430596458,251.09169371594908,None,0,,,,,sub-sepehr,ses-main-lbase-l-1,run-1,grey,2024-04-25_11h40.20.679,VDT,2023.2.3,120.23206516120305,2024-04-25 11h40.48.048354 +0200,
./images_beh/Sphere_CCW-1.5_BG-grey_stim-white.png,0,235,235,235,251.13255691499216,,,,,,,,,,251.09231605695095,251.13255691499216,251.13255691499216,251.8735718909884,251.8793794599478,252.07390369998757,None,0,,,,,sub-sepehr,ses-main-lbase-l-1,run-1,grey,2024-04-25_11h40.20.679,VDT,2023.2.3,120.23206516120305,2024-04-25 11h40.48.048354 +0200,
./images_beh/Sphere_Ref_BG-grey_stim-white.png,0,236,236,236,252.1084695919999,,,,,,,,,,252.07453850196907,252.12832627794705,252.12832627794705,252.87972420896403,252.8731689149863,253.09045047598192,None,0,,,,,sub-sepehr,ses-main-lbase-l-1,run-1,grey,2024-04-25_11h40.20.679,VDT,2023.2.3,120.23206516120305,2024-04-25 11h40.48.048354 +0200,
./images_beh/Sphere_CW-1.5_BG-grey_stim-white.png,0,237,237,237,253.1353712999844,,,,,,,,,,253.09166516998084,253.1353712999844,253.1353712999844,253.87973223795416,253.87973223795416,254.09664727997733,['space'],0,,,0.7423017940018326,None,sub-sepehr,ses-main-lbase-l-1,run-1,grey,2024-04-25_11h40.20.679,VDT,2023.2.3,120.23206516120305,2024-04-25 11h40.48.048354 +0200,
./images_beh/Sphere_CW-1.5_BG-grey_stim-white.png,0,238,238,238,254.14359583496116,,,,,,,,,,254.09764447296038,254.14359583496116,254.14359583496116,254.88015557598555,254.8890111349756,255.0396584069822,None,0,,,,,sub-sepehr,ses-main-lbase-l-1,run-1,grey,2024-04-25_11h40.20.679,VDT,2023.2.3,120.23206516120305,2024-04-25 11h40.48.048354 +0200,
./images_beh/Sphere_CW-1.5_BG-grey_stim-white.png,0,239,239,239,255.08527630497701,,,,,,,,,,255.04084051097743,255.1282792269485,255.1282792269485,255.87933754298138,255.87195251695812,256.07272230496164,None,0,,,,,sub-sepehr,ses-main-lbase-l-1,run-1,grey,2024-04-25_11h40.20.679,VDT,2023.2.3,120.23206516120305,2024-04-25 11h40.48.048354 +0200,
./images_beh/Sphere_Ref_BG-grey_stim-white.png,0,240,240,240,256.11373834399274,,,,,,,,,,256.0733328149654,256.12734389695106,256.12734389695106,256.875928311958,256.87053201097297,257.1392699359567,['space'],0,257.120974630001,257.120974630001,0.7030524899601005,None,sub-sepehr,ses-main-lbase-l-1,run-1,grey,2024-04-25_11h40.20.679,VDT,2023.2.3,120.23206516120305,2024-04-25 11h40.48.048354 +0200,
./images_beh/Sphere_CCW-1.5_BG-grey_stim-white.png,0,241,241,241,257.1864449749701,,,,,,,,,,257.14025151595706,257.1864449749701,257.1864449749701,257.87808832799783,257.9266547659645,258.08772581099765,None,0,,,,,sub-sepehr,ses-main-lbase-l-1,run-1,grey,2024-04-25_11h40.20.679,VDT,2023.2.3,120.23206516120305,2024-04-25 11h40.48.048354 +0200,
./images_beh/Sphere_CCW-1.5_BG-grey_stim-white.png,0,242,242,242,258.1436689219554,,,,,,,,,,258.0884046399733,258.1436689219554,258.1436689219554,258.8892149949679,258.9040957459947,259.04423927899916,None,0,,,,,sub-sepehr,ses-main-lbase-l-1,run-1,grey,2024-04-25_11h40.20.679,VDT,2023.2.3,120.23206516120305,2024-04-25 11h40.48.048354 +0200,
./images_beh/Sphere_Ref_BG-grey_stim-white.png,0,243,243,243,259.0927098369575,,,,,,,,,,259.04514022596413,259.12554645497585,259.12554645497585,259.8770202299929,259.87003372999607,260.0777887229924,None,0,,,,,sub-sepehr,ses-main-lbase-l-1,run-1,grey,2024-04-25_11h40.20.679,VDT,2023.2.3,120.23206516120305,2024-04-25 11h40.48.048354 +0200,
./images_beh/Sphere_CCW-1.5_BG-grey_stim-white.png,0,244,244,244,260.12360230996273,,,,,,,,,,260.07849883596646,260.1356414289912,260.1356414289912,260.88591077696765,260.88591077696765,261.10362968296977,None,0,,,,,sub-sepehr,ses-main-lbase-l-1,run-1,grey,2024-04-25_11h40.20.679,VDT,2023.2.3,120.23206516120305,2024-04-25 11h40.48.048354 +0200,
./images_beh/Sphere_CW-1.5_BG-grey_stim-white.png,0,245,245,245,261.1504800149705,,,,,,,,,,261.1043678539572,261.1504800149705,261.1504800149705,261.87664768099785,261.89213262096746,262.0694092659978,None,0,,,,,sub-sepehr,ses-main-lbase-l-1,run-1,grey,2024-04-25_11h40.20.679,VDT,2023.2.3,120.23206516120305,2024-04-25 11h40.48.048354 +0200,
./images_beh/Sphere_CW-1.5_BG-grey_stim-white.png,0,246,246,246,262.11591317894636,,,,,,,,,,262.0709504939732,262.12160510895774,262.12160510895774,262.8758281740011,262.86835691699525,263.0432709849556,None,0,,,,,sub-sepehr,ses-main-lbase-l-1,run-1,grey,2024-04-25_11h40.20.679,VDT,2023.2.3,120.23206516120305,2024-04-25 11h40.48.048354 +0200,
./images_beh/Sphere_CW-1.5_BG-grey_stim-white.png,0,247,247,247,263.08683431497775,,,,,,,,,,263.0438700829982,263.12491462298203,263.12491462298203,263.87294455996016,263.8671370379743,264.0353142939857,None,0,,,,,sub-sepehr,ses-main-lbase-l-1,run-1,grey,2024-04-25_11h40.20.679,VDT,2023.2.3,120.23206516120305,2024-04-25 11h40.48.048354 +0200,
./images_beh/Sphere_Ref_BG-grey_stim-white.png,0,248,248,248,264.082388012961,,,,,,,,,,264.03639065800235,264.12390600395156,264.12390600395156,264.87343958299607,264.8668634329806,265.10154778999276,['space'],0,,,0.5782711550127715,None,sub-sepehr,ses-main-lbase-l-1,run-1,grey,2024-04-25_11h40.20.679,VDT,2023.2.3,120.23206516120305,2024-04-25 11h40.48.048354 +0200,
./images_beh/Sphere_CW-1.5_BG-grey_stim-white.png,0,249,249,249,265.14756139798556,,,,,,,,,,265.1024036119925,265.14756139798556,265.14756139798556,265.8748934059986,265.89034018595703,266.051200998947,None,0,,,,,sub-sepehr,ses-main-lbase-l-1,run-1,grey,2024-04-25_11h40.20.679,VDT,2023.2.3,120.23206516120305,2024-04-25 11h40.48.048354 +0200,
./images_beh/Sphere_CCW-1.5_BG-grey_stim-white.png,0,250,250,250,266.0929511159775,,,,,,,,,,266.051936807984,266.1358572789468,266.1358572789468,266.8746897839592,266.8826128069777,267.0411792349769,None,0,,,,,sub-sepehr,ses-main-lbase-l-1,run-1,grey,2024-04-25_11h40.20.679,VDT,2023.2.3,120.23206516120305,2024-04-25 11h40.48.048354 +0200,
./images_beh/Sphere_CCW-1.5_BG-grey_stim-white.png,0,251,251,251,267.0863442129921,,,,,,,,,,267.0417627119459,267.12271872296697,267.12271872296697,267.8821251739864,267.8678444479592,268.0832459279918,None,0,,,,,sub-sepehr,ses-main-lbase-l-1,run-1,grey,2024-04-25_11h40.20.679,VDT,2023.2.3,120.23206516120305,2024-04-25 11h40.48.048354 +0200,
./images_beh/Sphere_CCW-1.5_BG-grey_stim-white.png,0,252,252,252,268.13277104095323,,,,,,,,,,268.0843471659464,268.13277104095323,268.13277104095323,268.8819277769653,268.8819277769653,269.07337322598323,None,0,,,,,sub-sepehr,ses-main-lbase-l-1,run-1,grey,2024-04-25_11h40.20.679,VDT,2023.2.3,120.23206516120305,2024-04-25 11h40.48.048354 +0200,
./images_beh/Sphere_CCW-1.5_BG-grey_stim-white.png,0,253,253,253,269.11451357696205,,,,,,,,,,269.0740905539715,269.1200885499711,269.1200885499711,269.8720130419824,269.8648734319722,270.049039540987,None,0,,,,,sub-sepehr,ses-main-lbase-l-1,run-1,grey,2024-04-25_11h40.20.679,VDT,2023.2.3,120.23206516120305,2024-04-25 11h40.48.048354 +0200,
./images_beh/Sphere_CW-1.5_BG-grey_stim-white.png,0,254,254,254,270.0957252649823,,,,,,,,,,270.0498866609996,270.12025035195984,270.12025035195984,270.8711754899705,270.8642500869464,271.06499561399687,None,0,,,,,sub-sepehr,ses-main-lbase-l-1,run-1,grey,2024-04-25_11h40.20.679,VDT,2023.2.3,120.23206516120305,2024-04-25 11h40.48.048354 +0200,
./images_beh/Sphere_CW-1.5_BG-grey_stim-white.png,0,255,255,255,271.11004543700255,,,,,,,,,,271.065934475977,271.119864416949,271.119864416949,271.88292844896205,271.86363725498086,272.0476795419818,None,0,,,,,sub-sepehr,ses-main-lbase-l-1,run-1,grey,2024-04-25_11h40.20.679,VDT,2023.2.3,120.23206516120305,2024-04-25 11h40.48.048354 +0200,
./images_beh/Sphere_Ref_BG-grey_stim-white.png,0,256,256,256,272.09133122995263,,,,,,,,,,272.04827391699655,272.1326336139464,272.1326336139464,272.87951710796915,272.87951710796915,273.0469283199636,None,0,,,,,sub-sepehr,ses-main-lbase-l-1,run-1,grey,2024-04-25_11h40.20.679,VDT,2023.2.3,120.23206516120305,2024-04-25 11h40.48.048354 +0200,
./images_beh/Sphere_CCW-1.5_BG-grey_stim-white.png,0,257,257,257,273.0895722339628,,,,,,,,,,273.0477922409773,273.1303222209681,273.1303222209681,273.8794315289706,273.86909754696535,274.08048311795574,None,0,,,,,sub-sepehr,ses-main-lbase-l-1,run-1,grey,2024-04-25_11h40.20.679,VDT,2023.2.3,120.23206516120305,2024-04-25 11h40.48.048354 +0200,
./images_beh/Sphere_CCW-1.5_BG-grey_stim-white.png,0,258,258,258,274.1263314149692,,,,,,,,,,274.0813800279866,274.1316424179822,274.1316424179822,274.87864407198504,274.87864407198504,275.0535972689977,None,0,,,,,sub-sepehr,ses-main-lbase-l-1,run-1,grey,2024-04-25_11h40.20.679,VDT,2023.2.3,120.23206516120305,2024-04-25 11h40.48.048354 +0200,
./images_beh/Sphere_CCW-1.5_BG-grey_stim-white.png,0,259,259,259,275.09488206199603,,,,,,,,,,275.0543198969681,275.12885029194877,275.12885029194877,275.8781132499571,275.8670990859973,276.1131098989863,None,0,,,,,sub-sepehr,ses-main-lbase-l-1,run-1,grey,2024-04-25_11h40.20.679,VDT,2023.2.3,120.23206516120305,2024-04-25 11h40.48.048354 +0200,
./images_beh/Sphere_Ref_BG-grey_stim-white.png,0,260,260,260,276.16263350698864,,,,,,,,,,276.11402774997987,276.16263350698864,276.16263350698864,276.8806081969524,276.9134578219964,277.08620461594546,None,0,,,,,sub-sepehr,ses-main-lbase-l-1,run-1,grey,2024-04-25_11h40.20.679,VDT,2023.2.3,120.23206516120305,2024-04-25 11h40.48.048354 +0200,
./images_beh/Sphere_CW-1.5_BG-grey_stim-white.png,0,261,261,261,277.1365422169911,,,,,,,,,,277.0873757919762,277.1365422169911,277.1365422169911,277.87705601996277,277.8836715729558,278.10150624095695,['space'],0,,,0.6218269889941439,None,sub-sepehr,ses-main-lbase-l-1,run-1,grey,2024-04-25_11h40.20.679,VDT,2023.2.3,120.23206516120305,2024-04-25 11h40.48.048354 +0200,
./images_beh/Sphere_CW-1.5_BG-grey_stim-white.png,0,262,262,262,278.1413730039494,,,,,,,,,,278.1023372899508,278.1413730039494,278.1413730039494,278.87648570298916,278.8835248859832,279.1111389299622,None,0,,,,,sub-sepehr,ses-main-lbase-l-1,run-1,grey,2024-04-25_11h40.20.679,VDT,2023.2.3,120.23206516120305,2024-04-25 11h40.48.048354 +0200,
./images_beh/Sphere_Ref_BG-grey_stim-white.png,0,263,263,263,279.1606482209754,,,,,,,,,,279.11223851295654,279.1606482209754,279.1606482209754,279.8763455359731,279.9090861539589,280.0599446509732,['space'],0,,,0.8057829560129903,None,sub-sepehr,ses-main-lbase-l-1,run-1,grey,2024-04-25_11h40.20.679,VDT,2023.2.3,120.23206516120305,2024-04-25 11h40.48.048354 +0200,
./images_beh/Sphere_CW-1.5_BG-grey_stim-white.png,0,264,264,264,280.1045529230032,,,,,,,,,,280.06102220900357,280.1313104159781,280.1313104159781,280.8758021519752,280.8758021519752,281.07655091700144,None,0,,,,,sub-sepehr,ses-main-lbase-l-1,run-1,grey,2024-04-25_11h40.20.679,VDT,2023.2.3,120.23206516120305,2024-04-25 11h40.48.048354 +0200,
./images_beh/Sphere_CCW-1.5_BG-grey_stim-white.png,0,265,265,265,281.1202690009959,,,,,,,,,,281.0777301209746,281.12493948894553,281.12493948894553,281.87509159196634,281.8645709870034,282.08306740998523,None,0,,,,,sub-sepehr,ses-main-lbase-l-1,run-1,grey,2024-04-25_11h40.20.679,VDT,2023.2.3,120.23206516120305,2024-04-25 11h40.48.048354 +0200,
./images_beh/Sphere_Ref_BG-grey_stim-white.png,0,266,266,266,282.1321676229709,,,,,,,,,,282.0837893319549,282.1321676229709,282.1321676229709,282.87480079196393,282.88171168998815,283.1149630439468,None,0,283.1141527509899,,,,sub-sepehr,ses-main-lbase-l-1,run-1,grey,2024-04-25_11h40.20.679,VDT,2023.2.3,120.23206516120305,2024-04-25 11h40.48.048354 +0200,
./images_beh/Sphere_CW-1.5_BG-grey_stim-white.png,0,267,267,267,283.16244421497686,,,,,,,,,,283.1156836009468,283.16244421497686,283.16244421497686,283.87395702296635,283.9071972219972,284.0651960799587,None,0,,,,,sub-sepehr,ses-main-lbase-l-1,run-1,grey,2024-04-25_11h40.20.679,VDT,2023.2.3,120.23206516120305,2024-04-25 11h40.48.048354 +0200,
./images_beh/Sphere_CCW-1.5_BG-grey_stim-white.png,0,268,268,268,284.1071732509881,,,,,,,,,,284.06595079699764,284.128781692998,284.128781692998,284.8736931019812,284.8736931019812,285.0914448509575,None,0,,,,,sub-sepehr,ses-main-lbase-l-1,run-1,grey,2024-04-25_11h40.20.679,VDT,2023.2.3,120.23206516120305,2024-04-25 11h40.48.048354 +0200,
./images_beh/Sphere_CW-1.5_BG-grey_stim-white.png,0,269,269,269,285.13912158994935,,,,,,,,,,285.09247561194934,285.13912158994935,285.13912158994935,285.8806603080011,285.8806603080011,286.0973373729503,None,0,,,,,sub-sepehr,ses-main-lbase-l-1,run-1,grey,2024-04-25_11h40.20.679,VDT,2023.2.3,120.23206516120305,2024-04-25 11h40.48.048354 +0200,
