image,trials.thisRepN,trials.thisTrialN,trials.thisN,trials.thisIndex,thisRow.t,notes,WaitingForScannerTrigger.started,Vertical.started,key_resp.started,WaitingForScannerTrigger.stopped,key_resp.keys,key_resp.corr,key_resp.rt,key_resp.duration,VDT.started,PresentedLine1.started,key_resp_2.started,FixDot2.started,PresentedLine1.stopped,VDT.stopped,key_resp_2.keys,key_resp_2.corr,key_resp_2.rt,key_resp_2.duration,FixDot2.stopped,key_resp_2.stopped,participant,session,run,BG_color,date,expName,psychopyVersion,frameRate,expStart,
,,,,,,,0.00415926898131147,0.009881075995508581,0.009881075995508581,2.091573048965074,s,0,2.038650495989714,None,,,,,,,,,,,,,sub-sepehr,ses-control-base-l-2,run-1,grey,2024-04-25_11h33.05.217,VDT,2023.2.3,None,2024-04-25 11h33.47.481283 +0200,
./images_beh/Sphere_CW-1.5_BG-grey_stim-white.png,0,0,0,0,2.151911945955362,,,,,,,,,,2.1124344719573855,2.151911945955362,2.151911945955362,2.8434060809668154,2.8970890879863873,3.0075950519531034,None,0,,,,,sub-sepehr,ses-control-base-l-2,run-1,grey,2024-04-25_11h33.05.217,VDT,2023.2.3,None,2024-04-25 11h33.47.481283 +0200,
./images_beh/Sphere_CCW-1.5_BG-grey_stim-white.png,0,1,1,1,3.0540768429636955,,,,,,,,,,3.0105798159493133,3.090500959951896,3.090500959951896,3.83990568399895,3.8295448509743437,4.0574992709443904,None,0,,,,,sub-sepehr,ses-control-base-l-2,run-1,grey,2024-04-25_11h33.05.217,VDT,2023.2.3,None,2024-04-25 11h33.47.481283 +0200,
./images_beh/Sphere_CW-1.5_BG-grey_stim-white.png,0,2,2,2,4.1050021419650875,,,,,,,,,,4.0586679999832995,4.1050021419650875,4.1050021419650875,4.839366360974964,4.846439588000067,5.063156946969684,None,0,,,,,sub-sepehr,ses-control-base-l-2,run-1,grey,2024-04-25_11h33.05.217,VDT,2023.2.3,None,2024-04-25 11h33.47.481283 +0200,
./images_beh/Sphere_CCW-1.5_BG-grey_stim-white.png,0,3,3,3,5.113774631987326,,,,,,,,,,5.063894954975694,5.113774631987326,5.113774631987326,5.838947673968505,5.8555848189862445,6.005938654998317,None,0,,,,,sub-sepehr,ses-control-base-l-2,run-1,grey,2024-04-25_11h33.05.217,VDT,2023.2.3,None,2024-04-25 11h33.47.481283 +0200,
./images_beh/Sphere_CW-1.5_BG-grey_stim-yellow.png,0,4,4,4,6.055338892969303,,,,,,,,,,6.006936100951862,6.088191785966046,6.088191785966046,6.83832799794618,6.8275010619545355,7.005864519975148,None,0,,,,,sub-sepehr,ses-control-base-l-2,run-1,grey,2024-04-25_11h33.05.217,VDT,2023.2.3,None,2024-04-25 11h33.47.481283 +0200,
./images_beh/Sphere_CW-1.5_BG-grey_stim-white.png,0,5,5,5,7.053443613986019,,,,,,,,,,7.006737351999618,7.088260613963939,7.088260613963939,7.8377898869803175,7.826452116947621,8.05567919096211,None,0,,,,,sub-sepehr,ses-control-base-l-2,run-1,grey,2024-04-25_11h33.05.217,VDT,2023.2.3,None,2024-04-25 11h33.47.481283 +0200,
./images_beh/Sphere_Ref_BG-grey_stim-white.png,0,6,6,6,8.104529156000353,,,,,,,,,,8.05643766396679,8.104529156000353,8.104529156000353,8.837232708989177,8.843271481979173,9.04480644594878,None,0,,,,,sub-sepehr,ses-control-base-l-2,run-1,grey,2024-04-25_11h33.05.217,VDT,2023.2.3,None,2024-04-25 11h33.47.481283 +0200,
./images_beh/Sphere_CW-1.5_BG-grey_stim-white.png,0,7,7,7,9.091999838943593,,,,,,,,,,9.04541102895746,9.091999838943593,9.091999838943593,9.836820084950887,9.836820084950887,10.0449792809668,None,0,,,,,sub-sepehr,ses-control-base-l-2,run-1,grey,2024-04-25_11h33.05.217,VDT,2023.2.3,None,2024-04-25 11h33.47.481283 +0200,
./images_beh/Sphere_Ref_BG-grey_stim-yellow.png,0,8,8,8,10.097120746970177,,,,,,,,,,10.045735093997791,10.097120746970177,10.097120746970177,10.852511431963649,10.852511431963649,11.060881717945449,['space'],0,0.5742609379813075,None,,,sub-sepehr,ses-control-base-l-2,run-1,grey,2024-04-25_11h33.05.217,VDT,2023.2.3,None,2024-04-25 11h33.47.481283 +0200,
./images_beh/Sphere_CCW-1.5_BG-grey_stim-white.png,0,9,9,9,11.10911945195403,,,,,,,,,,11.062222140957601,11.10911945195403,11.10911945195403,11.835730101971421,11.852482882968616,12.02336175495293,None,0,,,,,sub-sepehr,ses-control-base-l-2,run-1,grey,2024-04-25_11h33.05.217,VDT,2023.2.3,None,2024-04-25 11h33.47.481283 +0200,
./images_beh/Sphere_CCW-1.5_BG-grey_stim-white.png,0,10,10,10,12.073270930966828,,,,,,,,,,12.024118903966155,12.091400580946356,12.091400580946356,12.840509597968776,12.840509597968776,13.026582748978399,None,0,,,,,sub-sepehr,ses-control-base-l-2,run-1,grey,2024-04-25_11h33.05.217,VDT,2023.2.3,None,2024-04-25 11h33.47.481283 +0200,
./images_beh/Sphere_CCW-1.5_BG-grey_stim-yellow.png,0,11,11,11,13.074772529944312,,,,,,,,,,13.02739466598723,13.084784762992058,13.084784762992058,13.867930359963793,13.85622366896132,14.071203996951226,['space'],0,0.5520652499981225,None,,,sub-sepehr,ses-control-base-l-2,run-1,grey,2024-04-25_11h33.05.217,VDT,2023.2.3,None,2024-04-25 11h33.47.481283 +0200,
./images_beh/Sphere_CCW-1.5_BG-grey_stim-white.png,0,12,12,12,14.122380474000238,,,,,,,,,,14.072169105987996,14.122380474000238,14.122380474000238,14.842014784982894,14.867413508996833,15.087649799999781,None,0,,,,,sub-sepehr,ses-control-base-l-2,run-1,grey,2024-04-25_11h33.05.217,VDT,2023.2.3,None,2024-04-25 11h33.47.481283 +0200,
./images_beh/Sphere_CW-1.5_BG-grey_stim-white.png,0,13,13,13,15.13562690798426,,,,,,,,,,15.088382995978463,15.13562690798426,15.13562690798426,15.850265396991745,15.886539144965354,16.04122837894829,None,0,,,,,sub-sepehr,ses-control-base-l-2,run-1,grey,2024-04-25_11h33.05.217,VDT,2023.2.3,None,2024-04-25 11h33.47.481283 +0200,
./images_beh/Sphere_CCW-1.5_BG-grey_stim-white.png,0,14,14,14,16.08685947698541,,,,,,,,,,16.042393766983878,16.10030592797557,16.10030592797557,16.83892962394748,16.83892962394748,17.019530135963578,None,0,,,,,sub-sepehr,ses-control-base-l-2,run-1,grey,2024-04-25_11h33.05.217,VDT,2023.2.3,None,2024-04-25 11h33.47.481283 +0200,
./images_beh/Sphere_Ref_BG-grey_stim-yellow.png,0,15,15,15,17.06724453199422,,,,,,,,,,17.0202667779522,17.08873220597161,17.08873220597161,17.839464345946908,17.83268573199166,18.08313632698264,['space'],0,0.42895880597643554,None,18.082321775960736,18.082321775960736,sub-sepehr,ses-control-base-l-2,run-1,grey,2024-04-25_11h33.05.217,VDT,2023.2.3,None,2024-04-25 11h33.47.481283 +0200,
./images_beh/Sphere_CW-1.5_BG-grey_stim-white.png,0,16,16,16,18.127569788950495,,,,,,,,,,18.08426018396858,18.127569788950495,18.127569788950495,18.84048046899261,18.871948920947034,19.016243973979726,None,0,,,,,sub-sepehr,ses-control-base-l-2,run-1,grey,2024-04-25_11h33.05.217,VDT,2023.2.3,None,2024-04-25 11h33.47.481283 +0200,
./images_beh/Sphere_Ref_BG-grey_stim-white.png,0,17,17,17,19.06348947394872,,,,,,,,,,19.017287996946834,19.086938656982966,19.086938656982966,19.83723210298922,19.831291889946442,20.04898320697248,None,0,,,,,sub-sepehr,ses-control-base-l-2,run-1,grey,2024-04-25_11h33.05.217,VDT,2023.2.3,None,2024-04-25 11h33.47.481283 +0200,
./images_beh/Sphere_CCW-1.5_BG-grey_stim-white.png,0,18,18,18,20.09959323797375,,,,,,,,,,20.050237828982063,20.09959323797375,20.09959323797375,20.839481746952515,20.847678329970222,21.0215978329652,None,0,,,,,sub-sepehr,ses-control-base-l-2,run-1,grey,2024-04-25_11h33.05.217,VDT,2023.2.3,None,2024-04-25 11h33.47.481283 +0200,
./images_beh/Sphere_CCW-1.5_BG-grey_stim-white.png,0,19,19,19,21.067299530957825,,,,,,,,,,21.022253668983467,21.086363553942647,21.086363553942647,21.837441097944975,21.830466551997233,22.03708750696387,None,0,,,,,sub-sepehr,ses-control-base-l-2,run-1,grey,2024-04-25_11h33.05.217,VDT,2023.2.3,None,2024-04-25 11h33.47.481283 +0200,
./images_beh/Sphere_CW-1.5_BG-grey_stim-white.png,0,20,20,20,22.082552381965797,,,,,,,,,,22.037770704948343,22.09665394894546,22.09665394894546,22.837364466977306,22.837364466977306,23.031810613989364,None,0,,,,,sub-sepehr,ses-control-base-l-2,run-1,grey,2024-04-25_11h33.05.217,VDT,2023.2.3,None,2024-04-25 11h33.47.481283 +0200,
./images_beh/Sphere_CCW-1.5_BG-grey_stim-yellow.png,0,21,21,21,23.077988371951506,,,,,,,,,,23.032596946984995,23.08349177596392,23.08349177596392,23.83524813398253,23.82943726296071,24.037044756987598,['space'],0,0.5307709519984201,None,,,sub-sepehr,ses-control-base-l-2,run-1,grey,2024-04-25_11h33.05.217,VDT,2023.2.3,None,2024-04-25 11h33.47.481283 +0200,
./images_beh/Sphere_CCW-1.5_BG-grey_stim-white.png,0,22,22,22,24.08457670098869,,,,,,,,,,24.038005072972737,24.09582687797956,24.09582687797956,24.835173715953715,24.835173715953715,25.019446455000434,None,0,,,,,sub-sepehr,ses-control-base-l-2,run-1,grey,2024-04-25_11h33.05.217,VDT,2023.2.3,None,2024-04-25 11h33.47.481283 +0200,
./images_beh/Sphere_Ref_BG-grey_stim-white.png,0,23,23,23,25.065094512945507,,,,,,,,,,25.020126328978222,25.083672782988288,25.083672782988288,25.835467116965447,25.828469534986652,26.029191555979196,None,0,,,,,sub-sepehr,ses-control-base-l-2,run-1,grey,2024-04-25_11h33.05.217,VDT,2023.2.3,None,2024-04-25 11h33.47.481283 +0200,
./images_beh/Sphere_Ref_BG-grey_stim-yellow.png,0,24,24,24,26.075541168975178,,,,,,,,,,26.030359709984623,26.08059001795482,26.08059001795482,26.83487827394856,26.82784639199963,27.029208829975687,['space'],0,0.5331483479822055,None,,,sub-sepehr,ses-control-base-l-2,run-1,grey,2024-04-25_11h33.05.217,VDT,2023.2.3,None,2024-04-25 11h33.47.481283 +0200,
./images_beh/Sphere_CCW-1.5_BG-grey_stim-white.png,0,25,25,25,27.075068728998303,,,,,,,,,,27.0302225779742,27.079977121960837,27.079977121960837,27.834316688997205,27.82721901795594,28.04728347895434,None,0,,,,,sub-sepehr,ses-control-base-l-2,run-1,grey,2024-04-25_11h33.05.217,VDT,2023.2.3,None,2024-04-25 11h33.47.481283 +0200,
./images_beh/Sphere_CW-1.5_BG-grey_stim-white.png,0,26,26,26,28.09566231298959,,,,,,,,,,28.04805016197497,28.09566231298959,28.09566231298959,28.835501194000244,28.843767082958948,29.047289516951423,None,0,,,,,sub-sepehr,ses-control-base-l-2,run-1,grey,2024-04-25_11h33.05.217,VDT,2023.2.3,None,2024-04-25 11h33.47.481283 +0200,
./images_beh/Sphere_Ref_BG-grey_stim-white.png,0,27,27,27,29.095083656953648,,,,,,,,,,29.048025779949967,29.095083656953648,29.095083656953648,29.84539594495436,29.84539594495436,30.027841411996633,None,0,,,,,sub-sepehr,ses-control-base-l-2,run-1,grey,2024-04-25_11h33.05.217,VDT,2023.2.3,None,2024-04-25 11h33.47.481283 +0200,
./images_beh/Sphere_CW-1.5_BG-grey_stim-yellow.png,0,28,28,28,30.075020119955298,,,,,,,,,,30.028634851973038,30.08115620998433,30.08115620998433,30.83386132598389,30.82640200696187,31.01365704694763,['space'],0,0.43493792100343853,None,,,sub-sepehr,ses-control-base-l-2,run-1,grey,2024-04-25_11h33.05.217,VDT,2023.2.3,None,2024-04-25 11h33.47.481283 +0200,
./images_beh/Sphere_CCW-1.5_BG-grey_stim-white.png,0,29,29,29,31.063046909985133,,,,,,,,,,31.014626333955675,31.082352001976687,31.082352001976687,31.83329372596927,31.82591599097941,32.09336497395998,None,0,,,32.075971580983605,32.075971580983605,sub-sepehr,ses-control-base-l-2,run-1,grey,2024-04-25_11h33.05.217,VDT,2023.2.3,None,2024-04-25 11h33.47.481283 +0200,
./images_beh/Sphere_CCW-1.5_BG-grey_stim-white.png,0,30,30,30,32.14240869699279,,,,,,,,,,32.09415686398279,32.14240869699279,32.14240869699279,32.83310674596578,32.88146188296378,32.99895250797272,None,0,,,,,sub-sepehr,ses-control-base-l-2,run-1,grey,2024-04-25_11h33.05.217,VDT,2023.2.3,None,2024-04-25 11h33.47.481283 +0200,
./images_beh/Sphere_Ref_BG-grey_stim-yellow.png,0,31,31,31,33.04325115698157,,,,,,,,,,32.99964663898572,33.080940674990416,33.080940674990416,33.84423076699022,33.82698061596602,34.044420620950405,['space'],0,0.5071813349495642,None,,,sub-sepehr,ses-control-base-l-2,run-1,grey,2024-04-25_11h33.05.217,VDT,2023.2.3,None,2024-04-25 11h33.47.481283 +0200,
./images_beh/Sphere_CW-1.5_BG-grey_stim-white.png,0,32,32,32,34.092177101993,,,,,,,,,,34.04536976898089,34.092177101993,34.092177101993,34.83257859398145,34.84038051898824,35.00868674996309,None,0,,,,,sub-sepehr,ses-control-base-l-2,run-1,grey,2024-04-25_11h33.05.217,VDT,2023.2.3,None,2024-04-25 11h33.47.481283 +0200,
./images_beh/Sphere_CW-1.5_BG-grey_stim-white.png,0,33,33,33,35.052743480948266,,,,,,,,,,35.0094805789995,35.080157854943536,35.080157854943536,35.84017102699727,35.83008697495097,36.014057105989195,None,0,,,,,sub-sepehr,ses-control-base-l-2,run-1,grey,2024-04-25_11h33.05.217,VDT,2023.2.3,None,2024-04-25 11h33.47.481283 +0200,
./images_beh/Sphere_CW-1.5_BG-grey_stim-white.png,0,34,34,34,36.05683674098691,,,,,,,,,,36.014672598976176,36.09033917094348,36.09033917094348,36.83989740797551,36.83989740797551,37.02372961398214,None,0,,,,,sub-sepehr,ses-control-base-l-2,run-1,grey,2024-04-25_11h33.05.217,VDT,2023.2.3,None,2024-04-25 11h33.47.481283 +0200,
./images_beh/Sphere_CW-1.5_BG-grey_stim-white.png,0,35,35,35,37.067884466960095,,,,,,,,,,37.02441338595236,37.08926901099039,37.08926901099039,37.8392068479443,37.8285946919932,38.05638878594618,None,0,,,,,sub-sepehr,ses-control-base-l-2,run-1,grey,2024-04-25_11h33.05.217,VDT,2023.2.3,None,2024-04-25 11h33.47.481283 +0200,
./images_beh/Sphere_CW-1.5_BG-grey_stim-white.png,0,36,36,36,38.10182228498161,,,,,,,,,,38.05718173994683,38.10182228498161,38.10182228498161,38.838543681951705,38.845058939943556,39.073183577973396,None,0,,,,,sub-sepehr,ses-control-base-l-2,run-1,grey,2024-04-25_11h33.05.217,VDT,2023.2.3,None,2024-04-25 11h33.47.481283 +0200,
./images_beh/Sphere_CW-1.5_BG-grey_stim-white.png,0,37,37,37,39.12193403096171,,,,,,,,,,39.07397933799075,39.12193403096171,39.12193403096171,39.83840166794835,39.862259912944864,40.09493989299517,None,0,,,40.077515044948086,,sub-sepehr,ses-control-base-l-2,run-1,grey,2024-04-25_11h33.05.217,VDT,2023.2.3,None,2024-04-25 11h33.47.481283 +0200,
./images_beh/Sphere_CW-1.5_BG-grey_stim-white.png,0,38,38,38,40.14077602594625,,,,,,,,,,40.095576044986956,40.14077602594625,40.14077602594625,40.844309845997486,40.88678257196443,41.03890116896946,None,0,,,,,sub-sepehr,ses-control-base-l-2,run-1,grey,2024-04-25_11h33.05.217,VDT,2023.2.3,None,2024-04-25 11h33.47.481283 +0200,
./images_beh/Sphere_CW-1.5_BG-grey_stim-white.png,0,39,39,39,41.08602750499267,,,,,,,,,,41.03972793597495,41.091550099954475,41.091550099954475,41.837104749982245,41.837104749982245,42.04102492099628,None,0,,,,,sub-sepehr,ses-control-base-l-2,run-1,grey,2024-04-25_11h33.05.217,VDT,2023.2.3,None,2024-04-25 11h33.47.481283 +0200,
./images_beh/Sphere_Ref_BG-grey_stim-yellow.png,0,40,40,40,42.08786257595057,,,,,,,,,,42.04203451098874,42.103446219989564,42.103446219989564,42.83652515395079,42.84389271697728,43.09264244494261,['space'],0,0.5736114190076478,None,43.07590018899646,43.09182013297686,sub-sepehr,ses-control-base-l-2,run-1,grey,2024-04-25_11h33.05.217,VDT,2023.2.3,None,2024-04-25 11h33.47.481283 +0200,
./images_beh/Sphere_CW-1.5_BG-grey_stim-white.png,0,41,41,41,43.14047491498059,,,,,,,,,,43.09360236895736,43.14047491498059,43.14047491498059,43.83612044499023,43.88619370694505,44.0753669149708,None,0,,,44.074561495974194,,sub-sepehr,ses-control-base-l-2,run-1,grey,2024-04-25_11h33.05.217,VDT,2023.2.3,None,2024-04-25 11h33.47.481283 +0200,
./images_beh/Sphere_CCW-1.5_BG-grey_stim-white.png,0,42,42,42,44.120622355956584,,,,,,,,,,44.075960884976666,44.120622355956584,44.120622355956584,44.83558442798676,44.86875293799676,45.0553946379805,None,0,,,,,sub-sepehr,ses-control-base-l-2,run-1,grey,2024-04-25_11h33.05.217,VDT,2023.2.3,None,2024-04-25 11h33.47.481283 +0200,
./images_beh/Sphere_CCW-1.5_BG-grey_stim-white.png,0,43,43,43,45.1035757859936,,,,,,,,,,45.05614051996963,45.1035757859936,45.1035757859936,45.83797431795392,45.85177308798302,46.0528156029759,None,0,,,,,sub-sepehr,ses-control-base-l-2,run-1,grey,2024-04-25_11h33.05.217,VDT,2023.2.3,None,2024-04-25 11h33.47.481283 +0200,
./images_beh/Sphere_Ref_BG-grey_stim-yellow.png,0,44,44,44,46.10263900295831,,,,,,,,,,46.05384211498313,46.10263900295831,46.10263900295831,46.843235016975086,46.85119615396252,47.052034413965885,['space'],0,0.6219056999543682,None,,,sub-sepehr,ses-control-base-l-2,run-1,grey,2024-04-25_11h33.05.217,VDT,2023.2.3,None,2024-04-25 11h33.47.481283 +0200,
./images_beh/Sphere_CW-1.5_BG-grey_stim-white.png,0,45,45,45,47.10210771195125,,,,,,,,,,47.0533224879764,47.10210771195125,47.10210771195125,47.83698806195753,47.85335687996121,48.052227379987016,None,0,,,,,sub-sepehr,ses-control-base-l-2,run-1,grey,2024-04-25_11h33.05.217,VDT,2023.2.3,None,2024-04-25 11h33.47.481283 +0200,
./images_beh/Sphere_CCW-1.5_BG-grey_stim-white.png,0,46,46,46,48.10029215598479,,,,,,,,,,48.053177864989266,48.10029215598479,48.10029215598479,48.833514157973696,48.84068507695338,49.034775666950736,None,0,,,,,sub-sepehr,ses-control-base-l-2,run-1,grey,2024-04-25_11h33.05.217,VDT,2023.2.3,None,2024-04-25 11h33.47.481283 +0200,
./images_beh/Sphere_CW-1.5_BG-grey_stim-yellow.png,0,47,47,47,49.08287941099843,,,,,,,,,,49.03589663794264,49.08825109596364,49.08825109596364,49.83932827896206,49.83287234895397,50.0346863809973,['space'],0,0.5247473360504955,None,,,sub-sepehr,ses-control-base-l-2,run-1,grey,2024-04-25_11h33.05.217,VDT,2023.2.3,None,2024-04-25 11h33.47.481283 +0200,
./images_beh/Sphere_CCW-1.5_BG-grey_stim-white.png,0,48,48,48,50.082690235984046,,,,,,,,,,50.03611382894451,50.08805007796036,50.08805007796036,50.83948458399391,50.83251910994295,51.01936327695148,None,0,,,,,sub-sepehr,ses-control-base-l-2,run-1,grey,2024-04-25_11h33.05.217,VDT,2023.2.3,None,2024-04-25 11h33.47.481283 +0200,
./images_beh/Sphere_CCW-1.5_BG-grey_stim-white.png,0,49,49,49,51.06619357899763,,,,,,,,,,51.02009503397858,51.08842043799814,51.08842043799814,51.850911722984165,51.850911722984165,52.00209744297899,None,0,,,,,sub-sepehr,ses-control-base-l-2,run-1,grey,2024-04-25_11h33.05.217,VDT,2023.2.3,None,2024-04-25 11h33.47.481283 +0200,
./images_beh/Sphere_Ref_BG-grey_stim-white.png,0,50,50,50,52.04913392395247,,,,,,,,,,52.00283194798976,52.0880293599912,52.0880293599912,52.83872156095458,52.83180093095871,53.049253860954195,None,0,,,,,sub-sepehr,ses-control-base-l-2,run-1,grey,2024-04-25_11h33.05.217,VDT,2023.2.3,None,2024-04-25 11h33.47.481283 +0200,
./images_beh/Sphere_CCW-1.5_BG-grey_stim-yellow.png,0,51,51,51,53.097792808956,,,,,,,,,,53.05020830198191,53.097792808956,53.097792808956,53.83729340194259,53.83729340194259,54.031647174968384,['space'],0,0.4682579969521612,None,,,sub-sepehr,ses-control-base-l-2,run-1,grey,2024-04-25_11h33.05.217,VDT,2023.2.3,None,2024-04-25 11h33.47.481283 +0200,
./images_beh/Sphere_CCW-1.5_BG-grey_stim-white.png,0,52,52,52,54.076517955982126,,,,,,,,,,54.03293601097539,54.081211783981416,54.081211783981416,54.8370693079778,54.83036555699073,55.004691106965765,None,0,,,,,sub-sepehr,ses-control-base-l-2,run-1,grey,2024-04-25_11h33.05.217,VDT,2023.2.3,None,2024-04-25 11h33.47.481283 +0200,
./images_beh/Sphere_Ref_BG-grey_stim-white.png,0,53,53,53,55.05169312196085,,,,,,,,,,55.005428567994386,55.086003031989094,55.086003031989094,55.8372777349432,55.83006268099416,56.06451682798797,None,0,,,,,sub-sepehr,ses-control-base-l-2,run-1,grey,2024-04-25_11h33.05.217,VDT,2023.2.3,None,2024-04-25 11h33.47.481283 +0200,
./images_beh/Sphere_CCW-1.5_BG-grey_stim-white.png,0,54,54,54,56.111278800992295,,,,,,,,,,56.065329510951415,56.111278800992295,56.111278800992295,56.83645884197904,56.85336879699025,57.080036743951496,None,0,,,57.07901553099509,,sub-sepehr,ses-control-base-l-2,run-1,grey,2024-04-25_11h33.05.217,VDT,2023.2.3,None,2024-04-25 11h33.47.481283 +0200,
./images_beh/Sphere_CW-1.5_BG-grey_stim-white.png,0,55,55,55,57.12341890099924,,,,,,,,,,57.08102801296627,57.12341890099924,57.12341890099924,57.8371657289681,57.86905033496441,58.02029674797086,None,0,,,,,sub-sepehr,ses-control-base-l-2,run-1,grey,2024-04-25_11h33.05.217,VDT,2023.2.3,None,2024-04-25 11h33.47.481283 +0200,
./images_beh/Sphere_CCW-1.5_BG-grey_stim-white.png,0,56,56,56,58.070120804943144,,,,,,,,,,58.02123454096727,58.084397144964896,58.084397144964896,58.8350629999768,58.828269530960824,59.01880092598731,None,0,,,,,sub-sepehr,ses-control-base-l-2,run-1,grey,2024-04-25_11h33.05.217,VDT,2023.2.3,None,2024-04-25 11h33.47.481283 +0200,
./images_beh/Sphere_CW-1.5_BG-grey_stim-white.png,0,57,57,57,59.06824335397687,,,,,,,,,,59.019548023992684,59.08350205596071,59.08350205596071,59.83484873996349,59.82777633599471,60.05269641097402,None,0,,,,,sub-sepehr,ses-control-base-l-2,run-1,grey,2024-04-25_11h33.05.217,VDT,2023.2.3,None,2024-04-25 11h33.47.481283 +0200,
./images_beh/Sphere_CCW-1.5_BG-grey_stim-yellow.png,0,58,58,58,60.09985921299085,,,,,,,,,,60.053422410972416,60.09985921299085,60.09985921299085,60.83404026995413,60.84385092795128,61.11163315095473,['space'],0,0.44832974002929404,None,61.07725787896197,61.09392976696836,sub-sepehr,ses-control-base-l-2,run-1,grey,2024-04-25_11h33.05.217,VDT,2023.2.3,None,2024-04-25 11h33.47.481283 +0200,
./images_beh/Sphere_CW-1.5_BG-grey_stim-white.png,0,59,59,59,61.16027198295342,,,,,,,,,,61.113095593987964,61.16027198295342,61.16027198295342,61.834538891969714,61.89970882295165,62.03353914199397,None,0,,,,,sub-sepehr,ses-control-base-l-2,run-1,grey,2024-04-25_11h33.05.217,VDT,2023.2.3,None,2024-04-25 11h33.47.481283 +0200,
./images_beh/Sphere_CCW-1.5_BG-grey_stim-white.png,0,60,60,60,62.07478553697001,,,,,,,,,,62.03418156597763,62.08015629398869,62.08015629398869,62.84566523396643,62.84566523396643,63.010874735948164,None,0,,,,,sub-sepehr,ses-control-base-l-2,run-1,grey,2024-04-25_11h33.05.217,VDT,2023.2.3,None,2024-04-25 11h33.47.481283 +0200,
./images_beh/Sphere_CCW-1.5_BG-grey_stim-white.png,0,61,61,61,63.0587885529967,,,,,,,,,,63.011999351962004,63.0824499289738,63.0824499289738,63.84525813598884,63.84525813598884,64.02938337594969,None,0,,,,,sub-sepehr,ses-control-base-l-2,run-1,grey,2024-04-25_11h33.05.217,VDT,2023.2.3,None,2024-04-25 11h33.47.481283 +0200,
./images_beh/Sphere_Ref_BG-grey_stim-yellow.png,0,62,62,62,64.07711107697105,,,,,,,,,,64.03012138197664,64.0923932309961,64.0923932309961,64.83167016098741,64.83167016098741,65.04228030395461,['space'],0,0.592032372020185,None,,,sub-sepehr,ses-control-base-l-2,run-1,grey,2024-04-25_11h33.05.217,VDT,2023.2.3,None,2024-04-25 11h33.47.481283 +0200,
./images_beh/Sphere_CCW-1.5_BG-grey_stim-white.png,0,63,63,63,65.0800075539737,,,,,,,,,,65.04321862297365,65.0800075539737,65.0800075539737,65.83216102194274,65.8250040379935,66.00900831096806,None,0,,,,,sub-sepehr,ses-control-base-l-2,run-1,grey,2024-04-25_11h33.05.217,VDT,2023.2.3,None,2024-04-25 11h33.47.481283 +0200,
./images_beh/Sphere_CW-1.5_BG-grey_stim-white.png,0,64,64,64,66.05722204199992,,,,,,,,,,66.01025786896935,66.08061901194742,66.08061901194742,66.84113215096295,66.82685250497889,67.03193844598718,None,0,,,,,sub-sepehr,ses-control-base-l-2,run-1,grey,2024-04-25_11h33.05.217,VDT,2023.2.3,None,2024-04-25 11h33.47.481283 +0200,
./images_beh/Sphere_CW-1.5_BG-grey_stim-yellow.png,0,65,65,65,67.08176375000039,,,,,,,,,,67.03295529598836,67.09062449296471,67.09062449296471,67.83120461797807,67.83120461797807,68.06490218196996,['space'],0,0.5300337360240519,None,,,sub-sepehr,ses-control-base-l-2,run-1,grey,2024-04-25_11h33.05.217,VDT,2023.2.3,None,2024-04-25 11h33.47.481283 +0200,
./images_beh/Sphere_Ref_BG-grey_stim-white.png,0,66,66,66,68.11168533697492,,,,,,,,,,68.06585622299463,68.11168533697492,68.11168533697492,68.84031000494724,68.85696014395216,69.0320377619937,None,0,,,,,sub-sepehr,ses-control-base-l-2,run-1,grey,2024-04-25_11h33.05.217,VDT,2023.2.3,None,2024-04-25 11h33.47.481283 +0200,
./images_beh/Sphere_CW-1.5_BG-grey_stim-white.png,0,67,67,67,69.07901349198073,,,,,,,,,,69.032761104987,69.0897554049734,69.0897554049734,69.84231456596171,69.82863846799592,70.01395957299974,None,0,,,,,sub-sepehr,ses-control-base-l-2,run-1,grey,2024-04-25_11h33.05.217,VDT,2023.2.3,None,2024-04-25 11h33.47.481283 +0200,
./images_beh/Sphere_Ref_BG-grey_stim-yellow.png,0,68,68,68,70.05884567298926,,,,,,,,,,70.01469057396753,70.08939952694345,70.08939952694345,70.84174759098096,70.84174759098096,71.04692438495113,['space'],0,0.4033884119708091,None,,,sub-sepehr,ses-control-base-l-2,run-1,grey,2024-04-25_11h33.05.217,VDT,2023.2.3,None,2024-04-25 11h33.47.481283 +0200,
./images_beh/Sphere_CW-1.5_BG-grey_stim-white.png,0,69,69,69,71.09079035796458,,,,,,,,,,71.04769400996156,71.09079035796458,71.09079035796458,71.84141214896226,71.84141214896226,72.02962235896848,None,0,,,,,sub-sepehr,ses-control-base-l-2,run-1,grey,2024-04-25_11h33.05.217,VDT,2023.2.3,None,2024-04-25 11h33.47.481283 +0200,
./images_beh/Sphere_Ref_BG-grey_stim-white.png,0,70,70,70,72.07290838495828,,,,,,,,,,72.03022057295311,72.09471031895373,72.09471031895373,72.8458821879467,72.8458821879467,73.09181005595019,None,0,,,,,sub-sepehr,ses-control-base-l-2,run-1,grey,2024-04-25_11h33.05.217,VDT,2023.2.3,None,2024-04-25 11h33.47.481283 +0200,
./images_beh/Sphere_CCW-1.5_BG-grey_stim-white.png,0,71,71,71,73.13934700895334,,,,,,,,,,73.09255206497619,73.13934700895334,73.13934700895334,73.83767279295716,73.88712376100011,74.01225199899636,None,0,,,,,sub-sepehr,ses-control-base-l-2,run-1,grey,2024-04-25_11h33.05.217,VDT,2023.2.3,None,2024-04-25 11h33.47.481283 +0200,
./images_beh/Sphere_CCW-1.5_BG-grey_stim-white.png,0,72,72,72,74.06348901998717,,,,,,,,,,74.01327455998398,74.089661830978,74.089661830978,74.83712135098176,74.83712135098176,75.0211319209775,None,0,,,,,sub-sepehr,ses-control-base-l-2,run-1,grey,2024-04-25_11h33.05.217,VDT,2023.2.3,None,2024-04-25 11h33.47.481283 +0200,
./images_beh/Sphere_CW-1.5_BG-grey_stim-white.png,0,73,73,73,75.06363097496796,,,,,,,,,,75.0218751669745,75.08677508798428,75.08677508798428,75.83695339696715,75.82516055495944,75.99465082894312,None,0,,,,,sub-sepehr,ses-control-base-l-2,run-1,grey,2024-04-25_11h33.05.217,VDT,2023.2.3,None,2024-04-25 11h33.47.481283 +0200,
./images_beh/Sphere_Ref_BG-grey_stim-yellow.png,0,74,74,74,76.04280640196521,,,,,,,,,,75.99537426995812,76.08641865098616,76.08641865098616,76.8406836699578,76.83542073098943,77.00585615896853,['space'],0,0.5023460880038328,None,,,sub-sepehr,ses-control-base-l-2,run-1,grey,2024-04-25_11h33.05.217,VDT,2023.2.3,None,2024-04-25 11h33.47.481283 +0200,
./images_beh/Sphere_CCW-1.5_BG-grey_stim-white.png,0,75,75,75,77.05314303096384,,,,,,,,,,77.00683797599049,77.09175500797573,77.09175500797573,77.83839680399979,77.83839680399979,78.05544216796989,None,0,,,,,sub-sepehr,ses-control-base-l-2,run-1,grey,2024-04-25_11h33.05.217,VDT,2023.2.3,None,2024-04-25 11h33.47.481283 +0200,
./images_beh/Sphere_Ref_BG-grey_stim-white.png,0,76,76,76,78.10402758495184,,,,,,,,,,78.05616847699275,78.10402758495184,78.10402758495184,78.8436422709492,78.85167718795128,79.03695628297282,None,0,,,,,sub-sepehr,ses-control-base-l-2,run-1,grey,2024-04-25_11h33.05.217,VDT,2023.2.3,None,2024-04-25 11h33.47.481283 +0200,
./images_beh/Sphere_CW-1.5_BG-grey_stim-white.png,0,77,77,77,79.08541854098439,,,,,,,,,,79.03774445899762,79.0912335269968,79.0912335269968,79.83450895897113,79.83450895897113,80.00493887398625,None,0,,,,,sub-sepehr,ses-control-base-l-2,run-1,grey,2024-04-25_11h33.05.217,VDT,2023.2.3,None,2024-04-25 11h33.47.481283 +0200,
./images_beh/Sphere_Ref_BG-grey_stim-yellow.png,0,78,78,78,80.05151878995821,,,,,,,,,,80.00567289098399,80.09127297095256,80.09127297095256,80.84085261198925,80.83395243197447,81.05899574898649,['space'],0,0.5129473840352148,None,,,sub-sepehr,ses-control-base-l-2,run-1,grey,2024-04-25_11h33.05.217,VDT,2023.2.3,None,2024-04-25 11h33.47.481283 +0200,
./images_beh/Sphere_CW-1.5_BG-grey_stim-white.png,0,79,79,79,81.10866393597098,,,,,,,,,,81.05998351599555,81.10866393597098,81.10866393597098,81.84086838999065,81.85631732194452,82.01803571399068,None,0,,,,,sub-sepehr,ses-control-base-l-2,run-1,grey,2024-04-25_11h33.05.217,VDT,2023.2.3,None,2024-04-25 11h33.47.481283 +0200,
./images_beh/Sphere_CW-1.5_BG-grey_stim-white.png,0,80,80,80,82.0632333929534,,,,,,,,,,82.01891721697757,82.08908421295928,82.08908421295928,82.84039250196656,82.8332681109896,83.0244404799887,None,0,,,,,sub-sepehr,ses-control-base-l-2,run-1,grey,2024-04-25_11h33.05.217,VDT,2023.2.3,None,2024-04-25 11h33.47.481283 +0200,
./images_beh/Sphere_Ref_BG-grey_stim-white.png,0,81,81,81,83.0713132719975,,,,,,,,,,83.02521261095535,83.08876527595567,83.08876527595567,83.83879870298551,83.83234202698804,84.06902771594469,None,0,,,,,sub-sepehr,ses-control-base-l-2,run-1,grey,2024-04-25_11h33.05.217,VDT,2023.2.3,None,2024-04-25 11h33.47.481283 +0200,
./images_beh/Sphere_CCW-1.5_BG-grey_stim-yellow.png,0,82,82,82,84.11845124798128,,,,,,,,,,84.06976471398957,84.11845124798128,84.11845124798128,84.84046671696706,84.86509716394357,85.08310580899706,['space'],0,0.4324730280204676,None,,,sub-sepehr,ses-control-base-l-2,run-1,grey,2024-04-25_11h33.05.217,VDT,2023.2.3,None,2024-04-25 11h33.47.481283 +0200,
./images_beh/Sphere_CW-1.5_BG-grey_stim-white.png,0,83,83,83,85.13144970498979,,,,,,,,,,85.08445602399297,85.13144970498979,85.13144970498979,85.84819839894772,85.87129403097788,86.04871635296149,None,0,,,,,sub-sepehr,ses-control-base-l-2,run-1,grey,2024-04-25_11h33.05.217,VDT,2023.2.3,None,2024-04-25 11h33.47.481283 +0200,
./images_beh/Sphere_CCW-1.5_BG-grey_stim-white.png,0,84,84,84,86.0957623909926,,,,,,,,,,86.04994385095779,86.0957623909926,86.0957623909926,86.8380922729848,86.8380922729848,87.03876416996354,None,0,,,,,sub-sepehr,ses-control-base-l-2,run-1,grey,2024-04-25_11h33.05.217,VDT,2023.2.3,None,2024-04-25 11h33.47.481283 +0200,
./images_beh/Sphere_CCW-1.5_BG-grey_stim-white.png,0,85,85,85,87.08742006297689,,,,,,,,,,87.03961984597845,87.09705484495498,87.09705484495498,87.83716964098858,87.83716964098858,88.03149599098833,None,0,,,,,sub-sepehr,ses-control-base-l-2,run-1,grey,2024-04-25_11h33.05.217,VDT,2023.2.3,None,2024-04-25 11h33.47.481283 +0200,
./images_beh/Sphere_CCW-1.5_BG-grey_stim-white.png,0,86,86,86,88.07939523097593,,,,,,,,,,88.0326472139568,88.08464378496865,88.08464378496865,88.83654395095073,88.82988512999145,89.0201591939549,None,0,,,,,sub-sepehr,ses-control-base-l-2,run-1,grey,2024-04-25_11h33.05.217,VDT,2023.2.3,None,2024-04-25 11h33.47.481283 +0200,
./images_beh/Sphere_CW-1.5_BG-grey_stim-yellow.png,0,87,87,87,89.06688540894538,,,,,,,,,,89.02092441095738,89.08520610799314,89.08520610799314,89.83528091694461,89.82878726598574,90.05311910796445,['space'],0,0.5452630019863136,None,,,sub-sepehr,ses-control-base-l-2,run-1,grey,2024-04-25_11h33.05.217,VDT,2023.2.3,None,2024-04-25 11h33.47.481283 +0200,
./images_beh/Sphere_CW-1.5_BG-grey_stim-white.png,0,88,88,88,90.09751284396043,,,,,,,,,,90.05388229095843,90.09751284396043,90.09751284396043,90.83666628896026,90.84526009496767,91.01912779099075,None,0,,,,,sub-sepehr,ses-control-base-l-2,run-1,grey,2024-04-25_11h33.05.217,VDT,2023.2.3,None,2024-04-25 11h33.47.481283 +0200,
./images_beh/Sphere_CCW-1.5_BG-grey_stim-white.png,0,89,89,89,91.06389588396996,,,,,,,,,,91.01988892396912,91.08411024895031,91.08411024895031,91.83521995297633,91.82812305097468,92.01898645597976,None,0,,,,,sub-sepehr,ses-control-base-l-2,run-1,grey,2024-04-25_11h33.05.217,VDT,2023.2.3,None,2024-04-25 11h33.47.481283 +0200,
./images_beh/Sphere_CCW-1.5_BG-grey_stim-white.png,0,90,90,90,92.06473556096898,,,,,,,,,,92.01974239695119,92.08347260195296,92.08347260195296,92.83363313996233,92.82753658096772,93.05258212797344,None,0,,,,,sub-sepehr,ses-control-base-l-2,run-1,grey,2024-04-25_11h33.05.217,VDT,2023.2.3,None,2024-04-25 11h33.47.481283 +0200,
./images_beh/Sphere_CCW-1.5_BG-grey_stim-white.png,0,91,91,91,93.10171031794744,,,,,,,,,,93.05330506694736,93.10171031794744,93.10171031794744,93.83469338197028,93.84368830197491,94.05120367894415,None,0,,,,,sub-sepehr,ses-control-base-l-2,run-1,grey,2024-04-25_11h33.05.217,VDT,2023.2.3,None,2024-04-25 11h33.47.481283 +0200,
./images_beh/Sphere_CCW-1.5_BG-grey_stim-white.png,0,92,92,92,94.10009964398341,,,,,,,,,,94.05192388396244,94.10009964398341,94.10009964398341,94.83287168998504,94.8431505659828,95.0509697899688,None,0,,,,,sub-sepehr,ses-control-base-l-2,run-1,grey,2024-04-25_11h33.05.217,VDT,2023.2.3,None,2024-04-25 11h33.47.481283 +0200,
./images_beh/Sphere_Ref_BG-grey_stim-white.png,0,93,93,93,95.10025103099179,,,,,,,,,,95.05171615094878,95.10025103099179,95.10025103099179,95.83352507394738,95.84286553499987,96.01038029399933,None,0,,,,,sub-sepehr,ses-control-base-l-2,run-1,grey,2024-04-25_11h33.05.217,VDT,2023.2.3,None,2024-04-25 11h33.47.481283 +0200,
./images_beh/Sphere_CW-1.5_BG-grey_stim-yellow.png,0,94,94,94,96.0577025229577,,,,,,,,,,96.01134596997872,96.08148590795463,96.08148590795463,96.83303437998984,96.83303437998984,97.04794329497963,['space'],0,0.42891001101816073,None,,,sub-sepehr,ses-control-base-l-2,run-1,grey,2024-04-25_11h33.05.217,VDT,2023.2.3,None,2024-04-25 11h33.47.481283 +0200,
./images_beh/Sphere_Ref_BG-grey_stim-white.png,0,95,95,95,97.08363066596212,,,,,,,,,,97.0483237959561,97.09139474097174,97.09139474097174,97.83254705695435,97.83254705695435,98.04933575197356,None,0,,,,,sub-sepehr,ses-control-base-l-2,run-1,grey,2024-04-25_11h33.05.217,VDT,2023.2.3,None,2024-04-25 11h33.47.481283 +0200,
./images_beh/Sphere_CCW-1.5_BG-grey_stim-white.png,0,96,96,96,98.09608040895546,,,,,,,,,,98.04992364998907,98.09608040895546,98.09608040895546,98.83279725495959,98.84104797698092,99.0648430409492,None,0,,,,,sub-sepehr,ses-control-base-l-2,run-1,grey,2024-04-25_11h33.05.217,VDT,2023.2.3,None,2024-04-25 11h33.47.481283 +0200,
./images_beh/Sphere_Ref_BG-grey_stim-yellow.png,0,97,97,97,99.11273545195581,,,,,,,,,,99.06556677998742,99.11273545195581,99.11273545195581,99.83051339595113,99.85728553397348,100.05816237197723,['space'],0,0.5155042629921809,None,,,sub-sepehr,ses-control-base-l-2,run-1,grey,2024-04-25_11h33.05.217,VDT,2023.2.3,None,2024-04-25 11h33.47.481283 +0200,
./images_beh/Sphere_CW-1.5_BG-grey_stim-white.png,0,98,98,98,100.10453243594384,,,,,,,,,,100.05934032599907,100.10453243594384,100.10453243594384,100.84034417598741,100.84743284498109,101.01424326695269,None,0,,,,,sub-sepehr,ses-control-base-l-2,run-1,grey,2024-04-25_11h33.05.217,VDT,2023.2.3,None,2024-04-25 11h33.47.481283 +0200,
./images_beh/Sphere_CW-1.5_BG-grey_stim-white.png,0,99,99,99,101.05915211996762,,,,,,,,,,101.01484168495517,101.09018298698356,101.09018298698356,101.84248184598982,101.84248184598982,102.04096900299191,None,0,,,,,sub-sepehr,ses-control-base-l-2,run-1,grey,2024-04-25_11h33.05.217,VDT,2023.2.3,None,2024-04-25 11h33.47.481283 +0200,
./images_beh/Sphere_Ref_BG-grey_stim-yellow.png,0,100,100,100,102.08671695395606,,,,,,,,,,102.04173585196259,102.10614287597127,102.10614287597127,102.83926220599096,102.8461091539939,103.01395117596257,['space'],0,0.418255626980681,None,,,sub-sepehr,ses-control-base-l-2,run-1,grey,2024-04-25_11h33.05.217,VDT,2023.2.3,None,2024-04-25 11h33.47.481283 +0200,
./images_beh/Sphere_CW-1.5_BG-grey_stim-white.png,0,101,101,101,103.06391192699084,,,,,,,,,,103.01507397298701,103.08866244700039,103.08866244700039,103.83867414796259,103.82865225797286,104.0130438109627,None,0,,,,,sub-sepehr,ses-control-base-l-2,run-1,grey,2024-04-25_11h33.05.217,VDT,2023.2.3,None,2024-04-25 11h33.47.481283 +0200,
./images_beh/Sphere_CW-1.5_BG-grey_stim-white.png,0,102,102,102,104.06151904194849,,,,,,,,,,104.01377741398755,104.08855344494805,104.08855344494805,104.83837247296469,104.82677879696712,105.07708362996345,None,0,,,105.07638358598342,105.07638358598342,sub-sepehr,ses-control-base-l-2,run-1,grey,2024-04-25_11h33.05.217,VDT,2023.2.3,None,2024-04-25 11h33.47.481283 +0200,
./images_beh/Sphere_CCW-1.5_BG-grey_stim-yellow.png,0,103,103,103,105.12285008397885,,,,,,,,,,105.0776654369547,105.12285008397885,105.12285008397885,105.83825561997946,105.87083547597285,106.05510773597052,['space'],0,0.5454400649759918,None,,,sub-sepehr,ses-control-base-l-2,run-1,grey,2024-04-25_11h33.05.217,VDT,2023.2.3,None,2024-04-25 11h33.47.481283 +0200,
./images_beh/Sphere_CCW-1.5_BG-grey_stim-white.png,0,104,104,104,106.10323598899413,,,,,,,,,,106.0563551869709,106.10323598899413,106.10323598899413,106.83727849996649,106.8443545299815,107.02781595499255,None,0,,,,,sub-sepehr,ses-control-base-l-2,run-1,grey,2024-04-25_11h33.05.217,VDT,2023.2.3,None,2024-04-25 11h33.47.481283 +0200,
./images_beh/Sphere_CW-1.5_BG-grey_stim-white.png,0,105,105,105,107.07241193496156,,,,,,,,,,107.0284072929644,107.09293975797482,107.09293975797482,107.84467964497162,107.84467964497162,108.01144489599392,None,0,,,,,sub-sepehr,ses-control-base-l-2,run-1,grey,2024-04-25_11h33.05.217,VDT,2023.2.3,None,2024-04-25 11h33.47.481283 +0200,
./images_beh/Sphere_CW-1.5_BG-grey_stim-white.png,0,106,106,106,108.05862599494867,,,,,,,,,,108.01216999394819,108.08715105999727,108.08715105999727,108.83601895999163,108.83601895999163,109.0116123619955,None,0,,,,,sub-sepehr,ses-control-base-l-2,run-1,grey,2024-04-25_11h33.05.217,VDT,2023.2.3,None,2024-04-25 11h33.47.481283 +0200,
./images_beh/Sphere_CCW-1.5_BG-grey_stim-white.png,0,107,107,107,109.0610147669795,,,,,,,,,,109.0124158289982,109.09181233099662,109.09181233099662,109.83549360698089,109.83549360698089,110.05343852599617,None,0,,,,,sub-sepehr,ses-control-base-l-2,run-1,grey,2024-04-25_11h33.05.217,VDT,2023.2.3,None,2024-04-25 11h33.47.481283 +0200,
./images_beh/Sphere_CCW-1.5_BG-grey_stim-white.png,0,108,108,108,110.10289924399694,,,,,,,,,,110.05441078299191,110.10289924399694,110.10289924399694,110.8355431369855,110.84250830096425,111.00936066894792,None,0,,,,,sub-sepehr,ses-control-base-l-2,run-1,grey,2024-04-25_11h33.05.217,VDT,2023.2.3,None,2024-04-25 11h33.47.481283 +0200,
./images_beh/Sphere_CW-1.5_BG-grey_stim-white.png,0,109,109,109,111.05737862194655,,,,,,,,,,111.00995741394581,111.09211509599118,111.09211509599118,111.85404252598528,111.85404252598528,112.02150224195793,None,0,,,,,sub-sepehr,ses-control-base-l-2,run-1,grey,2024-04-25_11h33.05.217,VDT,2023.2.3,None,2024-04-25 11h33.47.481283 +0200,
./images_beh/Sphere_CCW-1.5_BG-grey_stim-white.png,0,110,110,110,112.06934541999362,,,,,,,,,,112.02223506598966,112.09061074297642,112.09061074297642,112.83439523499692,112.83439523499692,113.0578165279585,None,0,,,,,sub-sepehr,ses-control-base-l-2,run-1,grey,2024-04-25_11h33.05.217,VDT,2023.2.3,None,2024-04-25 11h33.47.481283 +0200,
./images_beh/Sphere_CCW-1.5_BG-grey_stim-white.png,0,111,111,111,113.10580555797787,,,,,,,,,,113.05841432395391,113.10580555797787,113.10580555797787,113.84144012699835,113.8503838799661,114.0347510939464,None,0,,,,,sub-sepehr,ses-control-base-l-2,run-1,grey,2024-04-25_11h33.05.217,VDT,2023.2.3,None,2024-04-25 11h33.47.481283 +0200,
./images_beh/Sphere_CW-1.5_BG-grey_stim-yellow.png,0,112,112,112,114.08219182497123,,,,,,,,,,114.0357087639859,114.08786433195928,114.08786433195928,114.84049416898051,114.83331294794334,115.00753575394629,['space'],0,0.46391926502110437,None,,,sub-sepehr,ses-control-base-l-2,run-1,grey,2024-04-25_11h33.05.217,VDT,2023.2.3,None,2024-04-25 11h33.47.481283 +0200,
./images_beh/Sphere_CW-1.5_BG-grey_stim-white.png,0,113,113,113,115.05685172299854,,,,,,,,,,115.00910360296257,115.08862950798357,115.08862950798357,115.83971480897162,115.83269105898216,116.05067909799982,None,0,,,,,sub-sepehr,ses-control-base-l-2,run-1,grey,2024-04-25_11h33.05.217,VDT,2023.2.3,None,2024-04-25 11h33.47.481283 +0200,
./images_beh/Sphere_CCW-1.5_BG-grey_stim-white.png,0,114,114,114,116.09712343098363,,,,,,,,,,116.05144529294921,116.09712343098363,116.09712343098363,116.84953431098256,116.84953431098256,117.01688616996398,None,0,,,,,sub-sepehr,ses-control-base-l-2,run-1,grey,2024-04-25_11h33.05.217,VDT,2023.2.3,None,2024-04-25 11h33.47.481283 +0200,
./images_beh/Sphere_Ref_BG-grey_stim-white.png,0,115,115,115,117.06335024297005,,,,,,,,,,117.01768108498072,117.08847422897816,117.08847422897816,117.83936379896477,117.83201932295924,118.03909424797166,None,0,,,,,sub-sepehr,ses-control-base-l-2,run-1,grey,2024-04-25_11h33.05.217,VDT,2023.2.3,None,2024-04-25 11h33.47.481283 +0200,
./images_beh/Sphere_Ref_BG-grey_stim-yellow.png,0,116,116,116,118.08496473595733,,,,,,,,,,118.03968389198417,118.09782871196512,118.09782871196512,118.8382029759814,118.8382029759814,119.05517598096048,['space'],0,0.45194652501959354,None,,,sub-sepehr,ses-control-base-l-2,run-1,grey,2024-04-25_11h33.05.217,VDT,2023.2.3,None,2024-04-25 11h33.47.481283 +0200,
./images_beh/Sphere_CW-1.5_BG-grey_stim-white.png,0,117,117,117,119.10533332498744,,,,,,,,,,119.05623333499534,119.10533332498744,119.10533332498744,119.83891858794959,119.84707150195027,119.998195646971,None,0,,,,,sub-sepehr,ses-control-base-l-2,run-1,grey,2024-04-25_11h33.05.217,VDT,2023.2.3,None,2024-04-25 11h33.47.481283 +0200,
./images_beh/Sphere_CW-1.5_BG-grey_stim-white.png,0,118,118,118,120.03903098794399,,,,,,,,,,119.99886139394948,120.08686186594423,120.08686186594423,120.83755502098938,120.83055492694257,121.08117324794875,None,0,,,121.0801709649968,121.0801709649968,sub-sepehr,ses-control-base-l-2,run-1,grey,2024-04-25_11h33.05.217,VDT,2023.2.3,None,2024-04-25 11h33.47.481283 +0200,
./images_beh/Sphere_CW-1.5_BG-grey_stim-white.png,0,119,119,119,121.1306181679829,,,,,,,,,,121.08229038497666,121.1306181679829,121.1306181679829,121.8368139359518,121.87934919196414,122.03039794799406,None,0,,,,,sub-sepehr,ses-control-base-l-2,run-1,grey,2024-04-25_11h33.05.217,VDT,2023.2.3,None,2024-04-25 11h33.47.481283 +0200,
./images_beh/Sphere_CCW-1.5_BG-grey_stim-yellow.png,0,120,120,120,122.07680717197945,,,,,,,,,,122.03144447196973,122.08173723996151,122.08173723996151,122.83525124099106,122.8288956459728,123.01988365297439,['space'],0,0.443380551005248,None,,,sub-sepehr,ses-control-base-l-2,run-1,grey,2024-04-25_11h33.05.217,VDT,2023.2.3,None,2024-04-25 11h33.47.481283 +0200,
./images_beh/Sphere_CCW-1.5_BG-grey_stim-white.png,0,121,121,121,123.06794751394773,,,,,,,,,,123.02082530298503,123.08386168797733,123.08386168797733,123.83537795394659,123.82847117097117,124.01980492094299,None,0,,,,,sub-sepehr,ses-control-base-l-2,run-1,grey,2024-04-25_11h33.05.217,VDT,2023.2.3,None,2024-04-25 11h33.47.481283 +0200,
./images_beh/Sphere_Ref_BG-grey_stim-white.png,0,122,122,122,124.06652414094424,,,,,,,,,,124.02058912394568,124.08340820897138,124.08340820897138,124.83371075498872,124.82787844195263,125.00224855099805,None,0,,,,,sub-sepehr,ses-control-base-l-2,run-1,grey,2024-04-25_11h33.05.217,VDT,2023.2.3,None,2024-04-25 11h33.47.481283 +0200,
./images_beh/Sphere_Ref_BG-grey_stim-yellow.png,0,123,123,123,125.04763164394535,,,,,,,,,,125.00309609196847,125.08323030895554,125.08323030895554,125.84657410095679,125.83015916094882,126.00135115894955,['space'],0,0.4336168220033869,None,,,sub-sepehr,ses-control-base-l-2,run-1,grey,2024-04-25_11h33.05.217,VDT,2023.2.3,None,2024-04-25 11h33.47.481283 +0200,
./images_beh/Sphere_CW-1.5_BG-grey_stim-white.png,0,124,124,124,126.04767033696407,,,,,,,,,,126.00241768197156,126.0834118919447,126.0834118919447,126.83438922499772,126.82702199899359,127.06093030795455,None,0,,,,,sub-sepehr,ses-control-base-l-2,run-1,grey,2024-04-25_11h33.05.217,VDT,2023.2.3,None,2024-04-25 11h33.47.481283 +0200,
./images_beh/Sphere_CCW-1.5_BG-grey_stim-white.png,0,125,125,125,127.1093334669713,,,,,,,,,,127.06198930699611,127.1093334669713,127.1093334669713,127.83459234499605,127.84917834296357,128.04400980495848,None,0,,,,,sub-sepehr,ses-control-base-l-2,run-1,grey,2024-04-25_11h33.05.217,VDT,2023.2.3,None,2024-04-25 11h33.47.481283 +0200,
./images_beh/Sphere_CW-1.5_BG-grey_stim-white.png,0,126,126,126,128.08932440297212,,,,,,,,,,128.0450959019945,128.08932440297212,128.08932440297212,128.8313536279602,128.8313536279602,129.06579534895718,None,0,,,,,sub-sepehr,ses-control-base-l-2,run-1,grey,2024-04-25_11h33.05.217,VDT,2023.2.3,None,2024-04-25 11h33.47.481283 +0200,
./images_beh/Sphere_CCW-1.5_BG-grey_stim-white.png,0,127,127,127,129.11257440998452,,,,,,,,,,129.06652637099614,129.11257440998452,129.11257440998452,129.83332950994372,129.858651292976,130.04336287698243,None,0,,,,,sub-sepehr,ses-control-base-l-2,run-1,grey,2024-04-25_11h33.05.217,VDT,2023.2.3,None,2024-04-25 11h33.47.481283 +0200,
./images_beh/Sphere_CW-1.5_BG-grey_stim-yellow.png,0,128,128,128,130.0927083339775,,,,,,,,,,130.04447560798144,130.0927083339775,130.0927083339775,130.83153180597583,130.83153180597583,131.04564789694268,['space'],0,0.45635943801607937,None,,,sub-sepehr,ses-control-base-l-2,run-1,grey,2024-04-25_11h33.05.217,VDT,2023.2.3,None,2024-04-25 11h33.47.481283 +0200,
./images_beh/Sphere_CW-1.5_BG-grey_stim-white.png,0,129,129,129,131.09486266999738,,,,,,,,,,131.0466696919757,131.09486266999738,131.09486266999738,131.8342668080004,131.84121970599517,132.02764269895852,None,0,,,,,sub-sepehr,ses-control-base-l-2,run-1,grey,2024-04-25_11h33.05.217,VDT,2023.2.3,None,2024-04-25 11h33.47.481283 +0200,
./images_beh/Sphere_CCW-1.5_BG-grey_stim-white.png,0,130,130,130,132.0737396219629,,,,,,,,,,132.02838939998765,132.0909114019596,132.0909114019596,132.8406322739902,132.8282476469758,133.05806360999122,None,0,,,,,sub-sepehr,ses-control-base-l-2,run-1,grey,2024-04-25_11h33.05.217,VDT,2023.2.3,None,2024-04-25 11h33.47.481283 +0200,
./images_beh/Sphere_Ref_BG-grey_stim-white.png,0,131,131,131,133.10752984596184,,,,,,,,,,133.05922313395422,133.10752984596184,133.10752984596184,133.84031119698193,133.84737159195356,134.0313587069977,None,0,,,,,sub-sepehr,ses-control-base-l-2,run-1,grey,2024-04-25_11h33.05.217,VDT,2023.2.3,None,2024-04-25 11h33.47.481283 +0200,
./images_beh/Sphere_CW-1.5_BG-grey_stim-white.png,0,132,132,132,134.07962983998004,,,,,,,,,,134.03208106494276,134.0902640739805,134.0902640739805,134.83964818599634,134.82927243196173,135.0309749619919,None,0,,,,,sub-sepehr,ses-control-base-l-2,run-1,grey,2024-04-25_11h33.05.217,VDT,2023.2.3,None,2024-04-25 11h33.47.481283 +0200,
./images_beh/Sphere_CCW-1.5_BG-grey_stim-white.png,0,133,133,133,135.07908111897996,,,,,,,,,,135.03169713297393,135.08993066498078,135.08993066498078,135.83924072497757,135.8282965569524,136.04039757995633,None,0,,,,,sub-sepehr,ses-control-base-l-2,run-1,grey,2024-04-25_11h33.05.217,VDT,2023.2.3,None,2024-04-25 11h33.47.481283 +0200,
./images_beh/Sphere_CCW-1.5_BG-grey_stim-yellow.png,0,134,134,134,136.08857773494674,,,,,,,,,,136.0412997479434,136.09391768398928,136.09391768398928,136.83868211798836,136.83868211798836,137.01343794196146,['space'],0,0.40584249899256974,None,,,sub-sepehr,ses-control-base-l-2,run-1,grey,2024-04-25_11h33.05.217,VDT,2023.2.3,None,2024-04-25 11h33.47.481283 +0200,
./images_beh/Sphere_CW-1.5_BG-grey_stim-white.png,0,135,135,135,137.0623026129906,,,,,,,,,,137.01440500997705,137.0886603379622,137.0886603379622,137.83826426794985,137.82792630896438,138.01334791694535,None,0,,,,,sub-sepehr,ses-control-base-l-2,run-1,grey,2024-04-25_11h33.05.217,VDT,2023.2.3,None,2024-04-25 11h33.47.481283 +0200,
./images_beh/Sphere_CW-1.5_BG-grey_stim-white.png,0,136,136,136,138.05775506497594,,,,,,,,,,138.01396593399113,138.08852721995208,138.08852721995208,138.83777903794544,138.82736375799868,139.08929407899268,None,0,,,139.07590744894696,139.07590744894696,sub-sepehr,ses-control-base-l-2,run-1,grey,2024-04-25_11h33.05.217,VDT,2023.2.3,None,2024-04-25 11h33.47.481283 +0200,
./images_beh/Sphere_Ref_BG-grey_stim-yellow.png,0,137,137,137,139.13669915299397,,,,,,,,,,139.0901299919933,139.13669915299397,139.13669915299397,139.84620132198324,139.8764742219937,140.02699671097798,['space'],0,0.4203267070115544,None,,,sub-sepehr,ses-control-base-l-2,run-1,grey,2024-04-25_11h33.05.217,VDT,2023.2.3,None,2024-04-25 11h33.47.481283 +0200,
./images_beh/Sphere_CCW-1.5_BG-grey_stim-white.png,0,138,138,138,140.06933617696632,,,,,,,,,,140.0277328149532,140.09280718298396,140.09280718298396,140.83670120395254,140.83670120395254,141.04380127997138,None,0,,,,,sub-sepehr,ses-control-base-l-2,run-1,grey,2024-04-25_11h33.05.217,VDT,2023.2.3,None,2024-04-25 11h33.47.481283 +0200,
./images_beh/Sphere_Ref_BG-grey_stim-white.png,0,139,139,139,141.09039279900026,,,,,,,,,,141.04447153996443,141.09039279900026,141.09039279900026,141.8364715279895,141.8364715279895,142.0373862379929,None,0,,,,,sub-sepehr,ses-control-base-l-2,run-1,grey,2024-04-25_11h33.05.217,VDT,2023.2.3,None,2024-04-25 11h33.47.481283 +0200,
./images_beh/Sphere_Ref_BG-grey_stim-yellow.png,0,140,140,140,142.08378418296343,,,,,,,,,,142.03816904796986,142.09002219396643,142.09002219396643,142.83794956695056,142.83794956695056,143.02686863596318,['space'],0,0.41093981300946325,None,,,sub-sepehr,ses-control-base-l-2,run-1,grey,2024-04-25_11h33.05.217,VDT,2023.2.3,None,2024-04-25 11h33.47.481283 +0200,
./images_beh/Sphere_CCW-1.5_BG-grey_stim-white.png,0,141,141,141,143.07559720095014,,,,,,,,,,143.02781610999955,143.08537930599414,143.08537930599414,143.83515187900048,143.82481167599326,144.0595475419541,None,0,,,,,sub-sepehr,ses-control-base-l-2,run-1,grey,2024-04-25_11h33.05.217,VDT,2023.2.3,None,2024-04-25 11h33.47.481283 +0200,
./images_beh/Sphere_CCW-1.5_BG-grey_stim-white.png,0,142,142,142,144.10682683298364,,,,,,,,,,144.06013497198,144.10682683298364,144.10682683298364,144.85147987899836,144.85883995494805,145.0362022969639,None,0,,,,,sub-sepehr,ses-control-base-l-2,run-1,grey,2024-04-25_11h33.05.217,VDT,2023.2.3,None,2024-04-25 11h33.47.481283 +0200,
./images_beh/Sphere_CW-1.5_BG-grey_stim-white.png,0,143,143,143,145.0830470439978,,,,,,,,,,145.03703137295088,145.0888865199522,145.0888865199522,145.8342988989898,145.8342988989898,146.00872265495127,None,0,,,,,sub-sepehr,ses-control-base-l-2,run-1,grey,2024-04-25_11h33.05.217,VDT,2023.2.3,None,2024-04-25 11h33.47.481283 +0200,
./images_beh/Sphere_CCW-1.5_BG-grey_stim-white.png,0,144,144,144,146.0562505729613,,,,,,,,,,146.00946189794922,146.09011343796737,146.09011343796737,146.84169598994777,146.84169598994777,147.0013213699567,None,0,,,,,sub-sepehr,ses-control-base-l-2,run-1,grey,2024-04-25_11h33.05.217,VDT,2023.2.3,None,2024-04-25 11h33.47.481283 +0200,
./images_beh/Sphere_CW-1.5_BG-grey_stim-white.png,0,145,145,145,147.04695362097118,,,,,,,,,,147.0020454499754,147.08963637199486,147.08963637199486,147.84005345997866,147.83304965798743,148.05785917898174,None,0,,,,,sub-sepehr,ses-control-base-l-2,run-1,grey,2024-04-25_11h33.05.217,VDT,2023.2.3,None,2024-04-25 11h33.47.481283 +0200,
./images_beh/Sphere_CW-1.5_BG-grey_stim-yellow.png,0,146,146,146,148.10256312094862,,,,,,,,,,148.0584564949968,148.10256312094862,148.10256312094862,148.84924023295753,148.84924023295753,148.99970240297262,['space'],0,0.4382691539940424,None,,,sub-sepehr,ses-control-base-l-2,run-1,grey,2024-04-25_11h33.05.217,VDT,2023.2.3,None,2024-04-25 11h33.47.481283 +0200,
./images_beh/Sphere_CW-1.5_BG-grey_stim-white.png,0,147,147,147,149.04349331796402,,,,,,,,,,149.00084283895558,149.08915879396955,149.08915879396955,149.85108332597883,149.834935234976,150.006988582958,None,0,,,,,sub-sepehr,ses-control-base-l-2,run-1,grey,2024-04-25_11h33.05.217,VDT,2023.2.3,None,2024-04-25 11h33.47.481283 +0200,
./images_beh/Sphere_CW-1.5_BG-grey_stim-white.png,0,148,148,148,150.0571090899757,,,,,,,,,,150.00781837996328,150.08801064296858,150.08801064296858,150.83871359797195,150.83164729195414,151.0557296659681,None,0,,,,,sub-sepehr,ses-control-base-l-2,run-1,grey,2024-04-25_11h33.05.217,VDT,2023.2.3,None,2024-04-25 11h33.47.481283 +0200,
./images_beh/Sphere_CCW-1.5_BG-grey_stim-yellow.png,0,149,149,149,151.09972757200012,,,,,,,,,,151.0563603079645,151.09972757200012,151.09972757200012,151.8376738759689,151.84787861898076,152.00512806198094,['space'],0,0.5202827380271628,None,,,sub-sepehr,ses-control-base-l-2,run-1,grey,2024-04-25_11h33.05.217,VDT,2023.2.3,None,2024-04-25 11h33.47.481283 +0200,
./images_beh/Sphere_CW-1.5_BG-grey_stim-white.png,0,150,150,150,152.0502363689593,,,,,,,,,,152.0060895839706,152.08758446999127,152.08758446999127,152.8381960859988,152.83062289399095,153.02360988099826,None,0,,,,,sub-sepehr,ses-control-base-l-2,run-1,grey,2024-04-25_11h33.05.217,VDT,2023.2.3,None,2024-04-25 11h33.47.481283 +0200,
./images_beh/Sphere_CW-1.5_BG-grey_stim-white.png,0,151,151,151,153.07098297798075,,,,,,,,,,153.02439077396411,153.0852899249876,153.0852899249876,153.836825262988,153.836825262988,154.04758230195148,None,0,,,,,sub-sepehr,ses-control-base-l-2,run-1,grey,2024-04-25_11h33.05.217,VDT,2023.2.3,None,2024-04-25 11h33.47.481283 +0200,
./images_beh/Sphere_CCW-1.5_BG-grey_stim-white.png,0,152,152,152,154.09831618797034,,,,,,,,,,154.04874016199028,154.09831618797034,154.09831618797034,154.83633922995068,154.84596749098273,155.01853391394252,None,0,,,,,sub-sepehr,ses-control-base-l-2,run-1,grey,2024-04-25_11h33.05.217,VDT,2023.2.3,None,2024-04-25 11h33.47.481283 +0200,
./images_beh/Sphere_CCW-1.5_BG-grey_stim-white.png,0,153,153,153,155.0572599299485,,,,,,,,,,155.01897107396508,155.08434730995214,155.08434730995214,155.83614642097382,155.82892500195885,156.0298682859866,None,0,,,,,sub-sepehr,ses-control-base-l-2,run-1,grey,2024-04-25_11h33.05.217,VDT,2023.2.3,None,2024-04-25 11h33.47.481283 +0200,
./images_beh/Sphere_Ref_BG-grey_stim-white.png,0,154,154,154,156.07655317598255,,,,,,,,,,156.03096902096877,156.08152477699332,156.08152477699332,156.83568023197586,156.8285647929879,157.0357208949863,None,0,,,,,sub-sepehr,ses-control-base-l-2,run-1,grey,2024-04-25_11h33.05.217,VDT,2023.2.3,None,2024-04-25 11h33.47.481283 +0200,
./images_beh/Sphere_Ref_BG-grey_stim-yellow.png,0,155,155,155,157.08060641994234,,,,,,,,,,157.03632126795128,157.09447251498932,157.09447251498932,157.8345020879642,157.8345020879642,158.0283361049951,['space'],0,0.4459528209990822,None,,,sub-sepehr,ses-control-base-l-2,run-1,grey,2024-04-25_11h33.05.217,VDT,2023.2.3,None,2024-04-25 11h33.47.481283 +0200,
./images_beh/Sphere_CCW-1.5_BG-grey_stim-white.png,0,156,156,156,158.07022618799238,,,,,,,,,,158.02949617395643,158.08285815798445,158.08285815798445,158.83363315399038,158.827092263964,159.0114684799919,None,0,,,,,sub-sepehr,ses-control-base-l-2,run-1,grey,2024-04-25_11h33.05.217,VDT,2023.2.3,None,2024-04-25 11h33.47.481283 +0200,
./images_beh/Sphere_CCW-1.5_BG-grey_stim-white.png,0,157,157,157,159.05385806097183,,,,,,,,,,159.01227298396407,159.08282638294622,159.08282638294622,159.83390241098823,159.82675223698607,159.99416941794334,None,0,,,,,sub-sepehr,ses-control-base-l-2,run-1,grey,2024-04-25_11h33.05.217,VDT,2023.2.3,None,2024-04-25 11h33.47.481283 +0200,
./images_beh/Sphere_Ref_BG-grey_stim-yellow.png,0,158,158,158,160.0365616819472,,,,,,,,,,159.99497908796184,160.0831218219828,160.0831218219828,160.83296560298186,160.82636450097198,161.0337983649806,['space'],0,0.5214711769949645,None,,,sub-sepehr,ses-control-base-l-2,run-1,grey,2024-04-25_11h33.05.217,VDT,2023.2.3,None,2024-04-25 11h33.47.481283 +0200,
./images_beh/Sphere_Ref_BG-grey_stim-white.png,0,159,159,159,161.07731146999868,,,,,,,,,,161.03470086294692,161.09275356895523,161.09275356895523,161.83276870497502,161.83276870497502,162.02654217596864,None,0,,,,,sub-sepehr,ses-control-base-l-2,run-1,grey,2024-04-25_11h33.05.217,VDT,2023.2.3,None,2024-04-25 11h33.47.481283 +0200,
./images_beh/Sphere_CCW-1.5_BG-grey_stim-white.png,0,160,160,160,162.07081157894572,,,,,,,,,,162.02753038099036,162.08059279696317,162.08059279696317,162.832008835976,162.82525083096698,163.03228700294858,None,0,,,,,sub-sepehr,ses-control-base-l-2,run-1,grey,2024-04-25_11h33.05.217,VDT,2023.2.3,None,2024-04-25 11h33.47.481283 +0200,
./images_beh/Sphere_CW-1.5_BG-grey_stim-white.png,0,161,161,161,163.07213680795394,,,,,,,,,,163.03277513297508,163.08152328897268,163.08152328897268,163.8318578369799,163.82487934594974,164.09283009095816,None,0,,,164.07758532295702,164.07758532295702,sub-sepehr,ses-control-base-l-2,run-1,grey,2024-04-25_11h33.05.217,VDT,2023.2.3,None,2024-04-25 11h33.47.481283 +0200,
./images_beh/Sphere_Ref_BG-grey_stim-white.png,0,162,162,162,164.14230252394918,,,,,,,,,,164.09363096399466,164.14230252394918,164.14230252394918,164.8333299169899,164.89085739396978,165.0449415409821,None,0,,,,,sub-sepehr,ses-control-base-l-2,run-1,grey,2024-04-25_11h33.05.217,VDT,2023.2.3,None,2024-04-25 11h33.47.481283 +0200,
./images_beh/Sphere_CCW-1.5_BG-grey_stim-white.png,0,163,163,163,165.09193531994242,,,,,,,,,,165.04601654899307,165.09193531994242,165.09193531994242,165.8315404939931,165.8315404939931,165.9993196009891,None,0,,,,,sub-sepehr,ses-control-base-l-2,run-1,grey,2024-04-25_11h33.05.217,VDT,2023.2.3,None,2024-04-25 11h33.47.481283 +0200,
./images_beh/Sphere_CCW-1.5_BG-grey_stim-yellow.png,0,164,164,164,166.04900271998486,,,,,,,,,,166.00023056799546,166.09065090294462,166.09065090294462,166.84310206596274,166.82963507494424,167.0747900469578,['space'],0,0.46826515096472576,None,,,sub-sepehr,ses-control-base-l-2,run-1,grey,2024-04-25_11h33.05.217,VDT,2023.2.3,None,2024-04-25 11h33.47.481283 +0200,
./images_beh/Sphere_CW-1.5_BG-grey_stim-white.png,0,165,165,165,167.12224040494766,,,,,,,,,,167.07601141597843,167.12224040494766,167.12224040494766,167.84296159696532,167.87336195399985,168.0409744499484,None,0,,,,,sub-sepehr,ses-control-base-l-2,run-1,grey,2024-04-25_11h33.05.217,VDT,2023.2.3,None,2024-04-25 11h33.47.481283 +0200,
./images_beh/Sphere_CW-1.5_BG-grey_stim-white.png,0,166,166,166,168.08709817094496,,,,,,,,,,168.04174605599837,168.09248586697504,168.09248586697504,168.83927976799896,168.83927976799896,168.99773431097856,None,0,,,,,sub-sepehr,ses-control-base-l-2,run-1,grey,2024-04-25_11h33.05.217,VDT,2023.2.3,None,2024-04-25 11h33.47.481283 +0200,
./images_beh/Sphere_CW-1.5_BG-grey_stim-yellow.png,0,167,167,167,169.0491066489485,,,,,,,,,,168.9986002749647,169.09116959798848,169.09116959798848,169.8386633329792,169.8386633329792,170.0562597279786,['space'],0,0.6013466910226271,None,,,sub-sepehr,ses-control-base-l-2,run-1,grey,2024-04-25_11h33.05.217,VDT,2023.2.3,None,2024-04-25 11h33.47.481283 +0200,
./images_beh/Sphere_CCW-1.5_BG-grey_stim-white.png,0,168,168,168,170.10243140498642,,,,,,,,,,170.05798739596503,170.10243140498642,170.10243140498642,170.8402158949757,170.85466927895322,171.04451750597218,None,0,,,,,sub-sepehr,ses-control-base-l-2,run-1,grey,2024-04-25_11h33.05.217,VDT,2023.2.3,None,2024-04-25 11h33.47.481283 +0200,
./images_beh/Sphere_CW-1.5_BG-grey_stim-white.png,0,169,169,169,171.08625762397423,,,,,,,,,,171.0450122289476,171.08625762397423,171.08625762397423,171.8398755369708,171.82718408398796,172.0048660869943,None,0,,,,,sub-sepehr,ses-control-base-l-2,run-1,grey,2024-04-25_11h33.05.217,VDT,2023.2.3,None,2024-04-25 11h33.47.481283 +0200,
./images_beh/Sphere_CW-1.5_BG-grey_stim-white.png,0,170,170,170,172.05328791897045,,,,,,,,,,172.00599965895526,172.087202494964,172.087202494964,172.8372935349471,172.82661140098935,173.00498694297858,None,0,,,,,sub-sepehr,ses-control-base-l-2,run-1,grey,2024-04-25_11h33.05.217,VDT,2023.2.3,None,2024-04-25 11h33.47.481283 +0200,
./images_beh/Sphere_Ref_BG-grey_stim-white.png,0,171,171,171,173.0523638779996,,,,,,,,,,173.00645970995538,173.08695721399272,173.08695721399272,173.8365836389712,173.8266625899705,174.07375451899134,None,0,,,,,sub-sepehr,ses-control-base-l-2,run-1,grey,2024-04-25_11h33.05.217,VDT,2023.2.3,None,2024-04-25 11h33.47.481283 +0200,
./images_beh/Sphere_CCW-1.5_BG-grey_stim-white.png,0,172,172,172,174.12140833196463,,,,,,,,,,174.07448934594868,174.12140833196463,174.12140833196463,174.83689771499485,174.86971735197585,175.06886440399103,None,0,,,,,sub-sepehr,ses-control-base-l-2,run-1,grey,2024-04-25_11h33.05.217,VDT,2023.2.3,None,2024-04-25 11h33.47.481283 +0200,
./images_beh/Sphere_Ref_BG-grey_stim-yellow.png,0,173,173,173,175.1034179329872,,,,,,,,,,175.06921325298026,175.1034179329872,175.1034179329872,175.85247640899615,175.85247640899615,176.03664417099208,['space'],0,0.4533076700172387,None,,,sub-sepehr,ses-control-base-l-2,run-1,grey,2024-04-25_11h33.05.217,VDT,2023.2.3,None,2024-04-25 11h33.47.481283 +0200,
./images_beh/Sphere_CCW-1.5_BG-grey_stim-white.png,0,174,174,174,176.08402859495254,,,,,,,,,,176.03803045797395,176.0896956359502,176.0896956359502,176.8350716229761,176.8350716229761,177.03606295597274,None,0,,,,,sub-sepehr,ses-control-base-l-2,run-1,grey,2024-04-25_11h33.05.217,VDT,2023.2.3,None,2024-04-25 11h33.47.481283 +0200,
./images_beh/Sphere_CCW-1.5_BG-grey_stim-white.png,0,175,175,175,177.08233897999162,,,,,,,,,,177.03694082098082,177.08760923298541,177.08760923298541,177.8346613049507,177.8346613049507,178.08629457995994,None,0,,,178.0734734509606,178.08503537799697,sub-sepehr,ses-control-base-l-2,run-1,grey,2024-04-25_11h33.05.217,VDT,2023.2.3,None,2024-04-25 11h33.47.481283 +0200,
./images_beh/Sphere_CW-1.5_BG-grey_stim-white.png,0,176,176,176,178.13742337399162,,,,,,,,,,178.08715885999845,178.13742337399162,178.13742337399162,178.83403505798196,178.88443375297356,179.0681325919577,None,0,,,,,sub-sepehr,ses-control-base-l-2,run-1,grey,2024-04-25_11h33.05.217,VDT,2023.2.3,None,2024-04-25 11h33.47.481283 +0200,
./images_beh/Sphere_Ref_BG-grey_stim-yellow.png,0,177,177,177,179.10874063294614,,,,,,,,,,179.06868639599998,179.10874063294614,179.10874063294614,179.83835963299498,179.85468700894853,180.0048770829453,['space'],0,0.43957090203184634,None,,,sub-sepehr,ses-control-base-l-2,run-1,grey,2024-04-25_11h33.05.217,VDT,2023.2.3,None,2024-04-25 11h33.47.481283 +0200,
./images_beh/Sphere_CCW-1.5_BG-grey_stim-white.png,0,178,178,178,180.0388595929835,,,,,,,,,,180.0052690699813,180.08792549395002,180.08792549395002,180.83940505597275,180.83276717696572,181.03240858699428,None,0,,,,,sub-sepehr,ses-control-base-l-2,run-1,grey,2024-04-25_11h33.05.217,VDT,2023.2.3,None,2024-04-25 11h33.47.481283 +0200,
./images_beh/Sphere_CW-1.5_BG-grey_stim-white.png,0,179,179,179,181.0640601849882,,,,,,,,,,181.03301402396755,181.0876935829874,181.0876935829874,181.83710667997366,181.83172636595555,182.08261903794482,None,0,,,182.08187555894256,182.08187555894256,sub-sepehr,ses-control-base-l-2,run-1,grey,2024-04-25_11h33.05.217,VDT,2023.2.3,None,2024-04-25 11h33.47.481283 +0200,
./images_beh/Sphere_CW-1.5_BG-grey_stim-white.png,0,180,180,180,182.11983871896518,,,,,,,,,,182.0832146179746,182.11983871896518,182.11983871896518,182.83999711094657,182.86530767695513,183.03313041396905,None,0,,,,,sub-sepehr,ses-control-base-l-2,run-1,grey,2024-04-25_11h33.05.217,VDT,2023.2.3,None,2024-04-25 11h33.47.481283 +0200,
./images_beh/Sphere_CCW-1.5_BG-grey_stim-white.png,0,181,181,181,183.0803895589779,,,,,,,,,,183.03397584095364,183.0864087229711,183.0864087229711,183.83835895295488,183.83144804899348,184.01561428396963,None,0,,,,,sub-sepehr,ses-control-base-l-2,run-1,grey,2024-04-25_11h33.05.217,VDT,2023.2.3,None,2024-04-25 11h33.47.481283 +0200,
./images_beh/Sphere_CW-1.5_BG-grey_stim-white.png,0,182,182,182,184.05967575497925,,,,,,,,,,184.01655884296633,184.0865103279939,184.0865103279939,184.83813614898827,184.83103313099127,185.03129412297858,None,0,,,,,sub-sepehr,ses-control-base-l-2,run-1,grey,2024-04-25_11h33.05.217,VDT,2023.2.3,None,2024-04-25 11h33.47.481283 +0200,
./images_beh/Sphere_CW-1.5_BG-grey_stim-yellow.png,0,183,183,183,185.0704789159936,,,,,,,,,,185.0323159659747,185.08687354298308,185.08687354298308,185.83814528095536,185.83087731699925,186.054551291978,['space'],0,0.4547252230113372,None,,,sub-sepehr,ses-control-base-l-2,run-1,grey,2024-04-25_11h33.05.217,VDT,2023.2.3,None,2024-04-25 11h33.47.481283 +0200,
./images_beh/Sphere_CCW-1.5_BG-grey_stim-white.png,0,184,184,184,186.0985520669492,,,,,,,,,,186.05530815094244,186.0985520669492,186.0985520669492,186.8469398789457,186.8469398789457,187.0046159819467,None,0,,,,,sub-sepehr,ses-control-base-l-2,run-1,grey,2024-04-25_11h33.05.217,VDT,2023.2.3,None,2024-04-25 11h33.47.481283 +0200,
./images_beh/Sphere_CCW-1.5_BG-grey_stim-white.png,0,185,185,185,187.05019234796055,,,,,,,,,,187.005341602955,187.08590890699998,187.08590890699998,187.83544492494548,187.82923754595686,188.080916020961,None,0,,,188.07966432895046,188.07966432895046,sub-sepehr,ses-control-base-l-2,run-1,grey,2024-04-25_11h33.05.217,VDT,2023.2.3,None,2024-04-25 11h33.47.481283 +0200,
./images_beh/Sphere_CCW-1.5_BG-grey_stim-white.png,0,186,186,186,188.12836893694475,,,,,,,,,,188.08179348596605,188.12836893694475,188.12836893694475,188.8373801309499,188.86919836199377,189.01991756097414,None,0,,,,,sub-sepehr,ses-control-base-l-2,run-1,grey,2024-04-25_11h33.05.217,VDT,2023.2.3,None,2024-04-25 11h33.47.481283 +0200,
./images_beh/Sphere_Ref_BG-grey_stim-yellow.png,0,187,187,187,189.0665373209631,,,,,,,,,,189.02068940899335,189.08433261496248,189.08433261496248,189.83497668697964,189.82829400594346,190.06236793496646,['space'],0,0.41549641703022644,None,,,sub-sepehr,ses-control-base-l-2,run-1,grey,2024-04-25_11h33.05.217,VDT,2023.2.3,None,2024-04-25 11h33.47.481283 +0200,
./images_beh/Sphere_CW-1.5_BG-grey_stim-white.png,0,188,188,188,190.11063770594774,,,,,,,,,,190.06374658097047,190.11063770594774,190.11063770594774,190.8357956399559,190.850516003964,191.06197744997917,None,0,,,,,sub-sepehr,ses-control-base-l-2,run-1,grey,2024-04-25_11h33.05.217,VDT,2023.2.3,None,2024-04-25 11h33.47.481283 +0200,
./images_beh/Sphere_CW-1.5_BG-grey_stim-white.png,0,189,189,189,191.1054849649663,,,,,,,,,,191.06287820194848,191.1054849649663,191.1054849649663,191.8353302249452,191.85065914294682,192.05191758199362,None,0,,,,,sub-sepehr,ses-control-base-l-2,run-1,grey,2024-04-25_11h33.05.217,VDT,2023.2.3,None,2024-04-25 11h33.47.481283 +0200,
./images_beh/Sphere_CW-1.5_BG-grey_stim-white.png,0,190,190,190,192.09880733396858,,,,,,,,,,192.052608279977,192.09880733396858,192.09880733396858,192.83340977097396,192.84318485698896,193.01066672697198,None,0,,,,,sub-sepehr,ses-control-base-l-2,run-1,grey,2024-04-25_11h33.05.217,VDT,2023.2.3,None,2024-04-25 11h33.47.481283 +0200,
./images_beh/Sphere_Ref_BG-grey_stim-yellow.png,0,191,191,191,193.05513573699864,,,,,,,,,,193.01166122197174,193.08201233198633,193.08201233198633,193.83155481895665,193.82604409294436,194.00982577796094,['space'],0,0.4421325880102813,None,,,sub-sepehr,ses-control-base-l-2,run-1,grey,2024-04-25_11h33.05.217,VDT,2023.2.3,None,2024-04-25 11h33.47.481283 +0200,
./images_beh/Sphere_CCW-1.5_BG-grey_stim-white.png,0,192,192,192,194.04284164996352,,,,,,,,,,194.01080457895296,194.08129634999204,194.08129634999204,194.83079725696007,194.8254594009486,195.0257039789576,None,0,,,,,sub-sepehr,ses-control-base-l-2,run-1,grey,2024-04-25_11h33.05.217,VDT,2023.2.3,None,2024-04-25 11h33.47.481283 +0200,
./images_beh/Sphere_CW-1.5_BG-grey_stim-white.png,0,193,193,193,195.05911248695338,,,,,,,,,,195.02648881694768,195.0808640649775,195.0808640649775,195.82998543896247,195.8247832749621,196.01370491296984,None,0,,,,,sub-sepehr,ses-control-base-l-2,run-1,grey,2024-04-25_11h33.05.217,VDT,2023.2.3,None,2024-04-25 11h33.47.481283 +0200,
./images_beh/Sphere_CCW-1.5_BG-grey_stim-yellow.png,0,194,194,194,196.04554908297723,,,,,,,,,,196.01398689794587,196.08017655397998,196.08017655397998,196.82951374695404,196.82437253999524,197.04158043197822,['space'],0,0.42915139597607777,None,,,sub-sepehr,ses-control-base-l-2,run-1,grey,2024-04-25_11h33.05.217,VDT,2023.2.3,None,2024-04-25 11h33.47.481283 +0200,
./images_beh/Sphere_Ref_BG-grey_stim-white.png,0,195,195,195,197.0753102269955,,,,,,,,,,197.04230633296538,197.08043995295884,197.08043995295884,197.83012396795675,197.83012396795675,198.0575496169622,None,0,,,,,sub-sepehr,ses-control-base-l-2,run-1,grey,2024-04-25_11h33.05.217,VDT,2023.2.3,None,2024-04-25 11h33.47.481283 +0200,
./images_beh/Sphere_CCW-1.5_BG-grey_stim-white.png,0,196,196,196,198.09468967997236,,,,,,,,,,198.05809741595294,198.09468967997236,198.09468967997236,198.84021680394653,198.84021680394653,199.01385171199217,None,0,,,,,sub-sepehr,ses-control-base-l-2,run-1,grey,2024-04-25_11h33.05.217,VDT,2023.2.3,None,2024-04-25 11h33.47.481283 +0200,
./images_beh/Sphere_Ref_BG-grey_stim-white.png,0,197,197,197,199.0606992749963,,,,,,,,,,199.0145935949986,199.09017912199488,199.09017912199488,199.83977565797977,199.82916891097557,200.0575281039928,None,0,,,,,sub-sepehr,ses-control-base-l-2,run-1,grey,2024-04-25_11h33.05.217,VDT,2023.2.3,None,2024-04-25 11h33.47.481283 +0200,
./images_beh/Sphere_CCW-1.5_BG-grey_stim-white.png,0,198,198,198,200.10178286395967,,,,,,,,,,200.0585583319771,200.10178286395967,200.10178286395967,200.8390344219515,200.8462931229733,201.0070649329573,None,0,,,,,sub-sepehr,ses-control-base-l-2,run-1,grey,2024-04-25_11h33.05.217,VDT,2023.2.3,None,2024-04-25 11h33.47.481283 +0200,
./images_beh/Sphere_CCW-1.5_BG-grey_stim-white.png,0,199,199,199,201.0523184259655,,,,,,,,,,201.00785470899427,201.08908618695568,201.08908618695568,201.83885048498632,201.8282133479952,202.06400772894267,None,0,,,,,sub-sepehr,ses-control-base-l-2,run-1,grey,2024-04-25_11h33.05.217,VDT,2023.2.3,None,2024-04-25 11h33.47.481283 +0200,
./images_beh/Sphere_CW-1.5_BG-grey_stim-white.png,0,200,200,200,202.10938944196096,,,,,,,,,,202.06467344996054,202.10938944196096,202.10938944196096,202.83855597896036,202.85486443300033,203.02913057396654,None,0,,,,,sub-sepehr,ses-control-base-l-2,run-1,grey,2024-04-25_11h33.05.217,VDT,2023.2.3,None,2024-04-25 11h33.47.481283 +0200,
./images_beh/Sphere_Ref_BG-grey_stim-white.png,0,201,201,201,203.07456588296918,,,,,,,,,,203.0298693869845,203.08842043596087,203.08842043596087,203.83789684897056,203.83789684897056,204.01196238497505,None,0,,,,,sub-sepehr,ses-control-base-l-2,run-1,grey,2024-04-25_11h33.05.217,VDT,2023.2.3,None,2024-04-25 11h33.47.481283 +0200,
./images_beh/Sphere_CCW-1.5_BG-grey_stim-white.png,0,202,202,202,204.0569307509577,,,,,,,,,,204.01269037596649,204.08785172196804,204.08785172196804,204.84489295794629,204.8376851939829,205.02155054698233,None,0,,,,,sub-sepehr,ses-control-base-l-2,run-1,grey,2024-04-25_11h33.05.217,VDT,2023.2.3,None,2024-04-25 11h33.47.481283 +0200,
./images_beh/Sphere_CCW-1.5_BG-grey_stim-yellow.png,0,203,203,203,205.0638962459634,,,,,,,,,,205.02229688694933,205.08724274596898,205.08724274596898,205.83648991095833,205.82606746297097,206.05424849397969,['space'],0,0.4457251150161028,None,,,sub-sepehr,ses-control-base-l-2,run-1,grey,2024-04-25_11h33.05.217,VDT,2023.2.3,None,2024-04-25 11h33.47.481283 +0200,
./images_beh/Sphere_CW-1.5_BG-grey_stim-white.png,0,204,204,204,206.10090605798177,,,,,,,,,,206.05539250397123,206.10090605798177,206.10090605798177,206.83629803999793,206.84268351795617,207.060108147969,None,0,,,,,sub-sepehr,ses-control-base-l-2,run-1,grey,2024-04-25_11h33.05.217,VDT,2023.2.3,None,2024-04-25 11h33.47.481283 +0200,
./images_beh/Sphere_CCW-1.5_BG-grey_stim-white.png,0,205,205,205,207.1052344889613,,,,,,,,,,207.0607002459583,207.1052344889613,207.1052344889613,207.8358598049963,207.852459445945,208.04318778496236,None,0,,,,,sub-sepehr,ses-control-base-l-2,run-1,grey,2024-04-25_11h33.05.217,VDT,2023.2.3,None,2024-04-25 11h33.47.481283 +0200,
./images_beh/Sphere_Ref_BG-grey_stim-yellow.png,0,206,206,206,208.08778904099017,,,,,,,,,,208.0437891809852,208.08778904099017,208.08778904099017,208.83492409996688,208.83492409996688,209.05235163297039,['space'],0,0.4462239069980569,None,,,sub-sepehr,ses-control-base-l-2,run-1,grey,2024-04-25_11h33.05.217,VDT,2023.2.3,None,2024-04-25 11h33.47.481283 +0200,
./images_beh/Sphere_CW-1.5_BG-grey_stim-white.png,0,207,207,207,209.094908198982,,,,,,,,,,209.05350711895153,209.094908198982,209.094908198982,209.83459434396354,209.8412713839789,210.03803777694702,None,0,,,,,sub-sepehr,ses-control-base-l-2,run-1,grey,2024-04-25_11h33.05.217,VDT,2023.2.3,None,2024-04-25 11h33.47.481283 +0200,
./images_beh/Sphere_CCW-1.5_BG-grey_stim-white.png,0,208,208,208,210.08286647999194,,,,,,,,,,210.03878862096462,210.08832249499392,210.08832249499392,210.83432864496717,210.83432864496717,211.0403058969532,None,0,,,,,sub-sepehr,ses-control-base-l-2,run-1,grey,2024-04-25_11h33.05.217,VDT,2023.2.3,None,2024-04-25 11h33.47.481283 +0200,
./images_beh/Sphere_Ref_BG-grey_stim-white.png,0,209,209,209,211.0825396909495,,,,,,,,,,211.04091562295798,211.08769010397373,211.08769010397373,211.84058641799493,211.84058641799493,212.0681803499465,None,0,,,,,sub-sepehr,ses-control-base-l-2,run-1,grey,2024-04-25_11h33.05.217,VDT,2023.2.3,None,2024-04-25 11h33.47.481283 +0200,
./images_beh/Sphere_Ref_BG-grey_stim-yellow.png,0,210,210,210,212.11378938995767,,,,,,,,,,212.06900166795822,212.11378938995767,212.11378938995767,212.8532013509539,212.86959916597698,213.0240662409924,['space'],0,0.42681079905014485,None,,,sub-sepehr,ses-control-base-l-2,run-1,grey,2024-04-25_11h33.05.217,VDT,2023.2.3,None,2024-04-25 11h33.47.481283 +0200,
./images_beh/Sphere_CW-1.5_BG-grey_stim-white.png,0,211,211,211,213.07145998894703,,,,,,,,,,213.02502172999084,213.08873501699418,213.08873501699418,213.83294888195815,213.83294888195815,214.05064248596318,None,0,,,,,sub-sepehr,ses-control-base-l-2,run-1,grey,2024-04-25_11h33.05.217,VDT,2023.2.3,None,2024-04-25 11h33.47.481283 +0200,
./images_beh/Sphere_CCW-1.5_BG-grey_stim-white.png,0,212,212,212,214.10017953196075,,,,,,,,,,214.05142955499468,214.10017953196075,214.10017953196075,214.8489567299839,214.8489567299839,215.0500430749962,None,0,,,,,sub-sepehr,ses-control-base-l-2,run-1,grey,2024-04-25_11h33.05.217,VDT,2023.2.3,None,2024-04-25 11h33.47.481283 +0200,
./images_beh/Sphere_CW-1.5_BG-grey_stim-yellow.png,0,213,213,213,215.0990570479771,,,,,,,,,,215.05096805095673,215.0990570479771,215.0990570479771,215.83866572397528,215.83866572397528,216.03952554194257,['space'],0,0.40140817000065,None,,,sub-sepehr,ses-control-base-l-2,run-1,grey,2024-04-25_11h33.05.217,VDT,2023.2.3,None,2024-04-25 11h33.47.481283 +0200,
./images_beh/Sphere_CW-1.5_BG-grey_stim-white.png,0,214,214,214,216.08421601098962,,,,,,,,,,216.0404619439505,216.09809759794734,216.09809759794734,216.8387647649506,216.8387647649506,216.99877512798412,None,0,,,,,sub-sepehr,ses-control-base-l-2,run-1,grey,2024-04-25_11h33.05.217,VDT,2023.2.3,None,2024-04-25 11h33.47.481283 +0200,
./images_beh/Sphere_CW-1.5_BG-grey_stim-white.png,0,215,215,215,217.04142416699324,,,,,,,,,,216.9994100369513,217.08751137997024,217.08751137997024,217.83831106999423,217.83831106999423,218.05126347998157,None,0,,,,,sub-sepehr,ses-control-base-l-2,run-1,grey,2024-04-25_11h33.05.217,VDT,2023.2.3,None,2024-04-25 11h33.47.481283 +0200,
./images_beh/Sphere_Ref_BG-grey_stim-white.png,0,216,216,216,218.09999773395248,,,,,,,,,,218.0519771859981,218.09999773395248,218.09999773395248,218.8379387279856,218.84696539194556,219.08139958698303,None,0,,,,,sub-sepehr,ses-control-base-l-2,run-1,grey,2024-04-25_11h33.05.217,VDT,2023.2.3,None,2024-04-25 11h33.47.481283 +0200,
./images_beh/Sphere_CW-1.5_BG-grey_stim-white.png,0,217,217,217,219.1306581409881,,,,,,,,,,219.08219611196546,219.1306581409881,219.1306581409881,219.84887373895617,219.87984021095326,220.0331564649823,None,0,,,,,sub-sepehr,ses-control-base-l-2,run-1,grey,2024-04-25_11h33.05.217,VDT,2023.2.3,None,2024-04-25 11h33.47.481283 +0200,
./images_beh/Sphere_Ref_BG-grey_stim-yellow.png,0,218,218,218,220.08031109999865,,,,,,,,,,220.03388555796118,220.0959765429725,220.0959765429725,220.83440290595172,220.83440290595172,221.0523146619671,['space'],0,0.6038136360002682,None,,,sub-sepehr,ses-control-base-l-2,run-1,grey,2024-04-25_11h33.05.217,VDT,2023.2.3,None,2024-04-25 11h33.47.481283 +0200,
./images_beh/Sphere_CCW-1.5_BG-grey_stim-white.png,0,219,219,219,221.09316777897766,,,,,,,,,,221.0529568779748,221.09316777897766,221.09316777897766,221.8329838719801,221.8329838719801,222.06912653695326,None,0,,,,,sub-sepehr,ses-control-base-l-2,run-1,grey,2024-04-25_11h33.05.217,VDT,2023.2.3,None,2024-04-25 11h33.47.481283 +0200,
./images_beh/Sphere_CCW-1.5_BG-grey_stim-white.png,0,220,220,220,222.11482497496763,,,,,,,,,,222.06973295594798,222.11482497496763,222.11482497496763,222.8362327979994,222.86143006797647,223.0460602559615,None,0,,,,,sub-sepehr,ses-control-base-l-2,run-1,grey,2024-04-25_11h33.05.217,VDT,2023.2.3,None,2024-04-25 11h33.47.481283 +0200,
./images_beh/Sphere_CW-1.5_BG-grey_stim-yellow.png,0,221,221,221,223.09268250397872,,,,,,,,,,223.046866632998,223.09268250397872,223.09268250397872,223.83323275396833,223.83323275396833,224.01757549395552,['space'],0,0.5192383810062893,None,,,sub-sepehr,ses-control-base-l-2,run-1,grey,2024-04-25_11h33.05.217,VDT,2023.2.3,None,2024-04-25 11h33.47.481283 +0200,
./images_beh/Sphere_CCW-1.5_BG-grey_stim-white.png,0,222,222,222,224.06327834998956,,,,,,,,,,224.01853108697105,224.082647306961,224.082647306961,224.83404352795333,224.82723901199643,225.01866817497648,None,0,,,,,sub-sepehr,ses-control-base-l-2,run-1,grey,2024-04-25_11h33.05.217,VDT,2023.2.3,None,2024-04-25 11h33.47.481283 +0200,
./images_beh/Sphere_CW-1.5_BG-grey_stim-white.png,0,223,223,223,225.06721997697605,,,,,,,,,,225.01940065599047,225.08175780298188,225.08175780298188,225.83372153894743,225.82666075398447,226.09955524496036,None,0,,,226.07703692495124,226.07703692495124,sub-sepehr,ses-control-base-l-2,run-1,grey,2024-04-25_11h33.05.217,VDT,2023.2.3,None,2024-04-25 11h33.47.481283 +0200,
./images_beh/Sphere_CW-1.5_BG-grey_stim-white.png,0,224,224,224,226.14709662797395,,,,,,,,,,226.1002758719842,226.14709662797395,226.14709662797395,226.83365190197947,226.89267653494608,227.0435886339983,None,0,,,,,sub-sepehr,ses-control-base-l-2,run-1,grey,2024-04-25_11h33.05.217,VDT,2023.2.3,None,2024-04-25 11h33.47.481283 +0200,
./images_beh/Sphere_Ref_BG-grey_stim-yellow.png,0,225,225,225,227.092190551979,,,,,,,,,,227.0447604499641,227.092190551979,227.092190551979,227.83225059998222,227.83225059998222,228.0325543039944,['space'],0,0.4488930130028166,None,,,sub-sepehr,ses-control-base-l-2,run-1,grey,2024-04-25_11h33.05.217,VDT,2023.2.3,None,2024-04-25 11h33.47.481283 +0200,
./images_beh/Sphere_CW-1.5_BG-grey_stim-white.png,0,226,226,226,228.07566119695548,,,,,,,,,,228.03330928296782,228.08088322298136,228.08088322298136,228.83195001096465,228.8252124899882,229.01544219697826,None,0,,,,,sub-sepehr,ses-control-base-l-2,run-1,grey,2024-04-25_11h33.05.217,VDT,2023.2.3,None,2024-04-25 11h33.47.481283 +0200,
./images_beh/Sphere_CW-1.5_BG-grey_stim-white.png,0,227,227,227,229.05793377995724,,,,,,,,,,229.01631743699545,229.07986794097815,229.07986794097815,229.8315794429509,229.8315794429509,230.09214872698067,None,0,,,230.09096448298078,230.07712215697393,sub-sepehr,ses-control-base-l-2,run-1,grey,2024-04-25_11h33.05.217,VDT,2023.2.3,None,2024-04-25 11h33.47.481283 +0200,
./images_beh/Sphere_CCW-1.5_BG-grey_stim-yellow.png,0,228,228,228,230.13801993598463,,,,,,,,,,230.09321687999181,230.13801993598463,230.13801993598463,230.84302917297464,230.89355867099948,231.06064793397672,['space'],0,0.5147949590464123,None,,,sub-sepehr,ses-control-base-l-2,run-1,grey,2024-04-25_11h33.05.217,VDT,2023.2.3,None,2024-04-25 11h33.47.481283 +0200,
./images_beh/Sphere_CW-1.5_BG-grey_stim-white.png,0,229,229,229,231.1099502349971,,,,,,,,,,231.06162053294247,231.1099502349971,231.1099502349971,231.84308168798452,231.85972439096076,232.03152063698508,None,0,,,,,sub-sepehr,ses-control-base-l-2,run-1,grey,2024-04-25_11h33.05.217,VDT,2023.2.3,None,2024-04-25 11h33.47.481283 +0200,
./images_beh/Sphere_CCW-1.5_BG-grey_stim-white.png,0,230,230,230,232.08386018598685,,,,,,,,,,232.03228683496127,232.0897123439936,232.0897123439936,232.84020887798397,232.82867133896798,233.03139945998555,None,0,,,,,sub-sepehr,ses-control-base-l-2,run-1,grey,2024-04-25_11h33.05.217,VDT,2023.2.3,None,2024-04-25 11h33.47.481283 +0200,
./images_beh/Sphere_CCW-1.5_BG-grey_stim-white.png,0,231,231,231,233.07828257599613,,,,,,,,,,233.03211196494522,233.0889666749863,233.0889666749863,233.83941098296782,233.82873125199694,234.0138457059511,None,0,,,,,sub-sepehr,ses-control-base-l-2,run-1,grey,2024-04-25_11h33.05.217,VDT,2023.2.3,None,2024-04-25 11h33.47.481283 +0200,
./images_beh/Sphere_Ref_BG-grey_stim-white.png,0,232,232,232,234.06171361694578,,,,,,,,,,234.01459064194933,234.08898560598027,234.08898560598027,234.83878844795981,234.82679264695616,235.05654291197425,None,0,,,,,sub-sepehr,ses-control-base-l-2,run-1,grey,2024-04-25_11h33.05.217,VDT,2023.2.3,None,2024-04-25 11h33.47.481283 +0200,
./images_beh/Sphere_CCW-1.5_BG-grey_stim-white.png,0,233,233,233,235.105881889991,,,,,,,,,,235.05744618194876,235.105881889991,235.105881889991,235.83823264896637,235.84477430197876,236.0301023569773,None,0,,,,,sub-sepehr,ses-control-base-l-2,run-1,grey,2024-04-25_11h33.05.217,VDT,2023.2.3,None,2024-04-25 11h33.47.481283 +0200,
./images_beh/Sphere_CW-1.5_BG-grey_stim-white.png,0,234,234,234,236.07531309698243,,,,,,,,,,236.03083737997804,236.08799082797486,236.08799082797486,236.83807970496127,236.82706283696461,237.07756397099,None,0,,,237.07674233295256,237.07674233295256,sub-sepehr,ses-control-base-l-2,run-1,grey,2024-04-25_11h33.05.217,VDT,2023.2.3,None,2024-04-25 11h33.47.481283 +0200,
./images_beh/Sphere_Ref_BG-grey_stim-white.png,0,235,235,235,237.12722935597412,,,,,,,,,,237.07821701699868,237.12722935597412,237.12722935597412,237.8539226539433,237.87056092894636,238.04136758297682,None,0,,,,,sub-sepehr,ses-control-base-l-2,run-1,grey,2024-04-25_11h33.05.217,VDT,2023.2.3,None,2024-04-25 11h33.47.481283 +0200,
./images_beh/Sphere_CW-1.5_BG-grey_stim-yellow.png,0,236,236,236,238.08918311196612,,,,,,,,,,238.04209095897386,238.10296261595795,238.10296261595795,238.84382061299402,238.84382061299402,239.02755347895436,['space'],0,0.48646180296782404,None,,,sub-sepehr,ses-control-base-l-2,run-1,grey,2024-04-25_11h33.05.217,VDT,2023.2.3,None,2024-04-25 11h33.47.481283 +0200,
./images_beh/Sphere_CW-1.5_BG-grey_stim-white.png,0,237,237,237,239.0706977059599,,,,,,,,,,239.02831686794525,239.09160852700006,239.09160852700006,239.83625803596806,239.83625803596806,240.0443353759474,None,0,,,,,sub-sepehr,ses-control-base-l-2,run-1,grey,2024-04-25_11h33.05.217,VDT,2023.2.3,None,2024-04-25 11h33.47.481283 +0200,
./images_beh/Sphere_CCW-1.5_BG-grey_stim-white.png,0,238,238,238,240.092905847996,,,,,,,,,,240.04504857794382,240.092905847996,240.092905847996,240.8357355449698,240.84242612397065,241.07260095595848,None,0,,,,,sub-sepehr,ses-control-base-l-2,run-1,grey,2024-04-25_11h33.05.217,VDT,2023.2.3,None,2024-04-25 11h33.47.481283 +0200,
./images_beh/Sphere_Ref_BG-grey_stim-white.png,0,239,239,239,241.1204148219549,,,,,,,,,,241.0733185549616,241.1204148219549,241.1204148219549,241.84350491594523,241.8685804399429,242.06978679797612,None,0,,,,,sub-sepehr,ses-control-base-l-2,run-1,grey,2024-04-25_11h33.05.217,VDT,2023.2.3,None,2024-04-25 11h33.47.481283 +0200,
./images_beh/Sphere_Ref_BG-grey_stim-yellow.png,0,240,240,240,242.12110137398122,,,,,,,,,,242.07059248397127,242.12110137398122,242.12110137398122,242.83459496195428,242.86786891298834,243.0090025359532,['space'],0,0.49174292699899524,None,,,sub-sepehr,ses-control-base-l-2,run-1,grey,2024-04-25_11h33.05.217,VDT,2023.2.3,None,2024-04-25 11h33.47.481283 +0200,
./images_beh/Sphere_CCW-1.5_BG-grey_stim-white.png,0,241,241,241,243.05361504195025,,,,,,,,,,243.00980879494455,243.09042666997993,243.09042666997993,243.83409343397943,243.83409343397943,244.05210107198218,None,0,,,,,sub-sepehr,ses-control-base-l-2,run-1,grey,2024-04-25_11h33.05.217,VDT,2023.2.3,None,2024-04-25 11h33.47.481283 +0200,
./images_beh/Sphere_CW-1.5_BG-grey_stim-white.png,0,242,242,242,244.09995996399084,,,,,,,,,,244.0528865029919,244.09995996399084,244.09995996399084,244.83361066295765,244.8398673029733,245.06763707194477,None,0,,,,,sub-sepehr,ses-control-base-l-2,run-1,grey,2024-04-25_11h33.05.217,VDT,2023.2.3,None,2024-04-25 11h33.47.481283 +0200,
./images_beh/Sphere_Ref_BG-grey_stim-yellow.png,0,243,243,243,245.10864329099422,,,,,,,,,,245.06826168997213,245.10864329099422,245.10864329099422,245.84057578095235,245.85609544697218,246.00337191898143,['space'],0,0.6481485840049572,None,,,sub-sepehr,ses-control-base-l-2,run-1,grey,2024-04-25_11h33.05.217,VDT,2023.2.3,None,2024-04-25 11h33.47.481283 +0200,
./images_beh/Sphere_CCW-1.5_BG-grey_stim-white.png,0,244,244,244,246.0517810199526,,,,,,,,,,246.00435310899047,246.08870102697983,246.08870102697983,246.8499897159636,246.83516157895792,247.04052483895794,None,0,,,,,sub-sepehr,ses-control-base-l-2,run-1,grey,2024-04-25_11h33.05.217,VDT,2023.2.3,None,2024-04-25 11h33.47.481283 +0200,
./images_beh/Sphere_CCW-1.5_BG-grey_stim-white.png,0,245,245,245,247.08755768899573,,,,,,,,,,247.04139458196005,247.0995726409601,247.0995726409601,247.84010761696845,247.84010761696845,248.01664243097184,None,0,,,,,sub-sepehr,ses-control-base-l-2,run-1,grey,2024-04-25_11h33.05.217,VDT,2023.2.3,None,2024-04-25 11h33.47.481283 +0200,
./images_beh/Sphere_CCW-1.5_BG-grey_stim-white.png,0,246,246,246,248.0630782499793,,,,,,,,,,248.0176381089841,248.08813814795576,248.08813814795576,248.83880933595356,248.83880933595356,249.03253779094666,None,0,,,,,sub-sepehr,ses-control-base-l-2,run-1,grey,2024-04-25_11h33.05.217,VDT,2023.2.3,None,2024-04-25 11h33.47.481283 +0200,
./images_beh/Sphere_CCW-1.5_BG-grey_stim-white.png,0,247,247,247,249.07883619895438,,,,,,,,,,249.03365986596327,249.08391404896975,249.08391404896975,249.8380988779827,249.83103597798618,250.01509160496062,None,0,,,,,sub-sepehr,ses-control-base-l-2,run-1,grey,2024-04-25_11h33.05.217,VDT,2023.2.3,None,2024-04-25 11h33.47.481283 +0200,
./images_beh/Sphere_CCW-1.5_BG-grey_stim-yellow.png,0,248,248,248,250.0578843189869,,,,,,,,,,250.0160036829766,250.08698795898817,250.08698795898817,250.83707717299694,250.8304984869901,251.05387873895233,['space'],0,0.5012099150335416,None,,,sub-sepehr,ses-control-base-l-2,run-1,grey,2024-04-25_11h33.05.217,VDT,2023.2.3,None,2024-04-25 11h33.47.481283 +0200,
./images_beh/Sphere_CW-1.5_BG-grey_stim-white.png,0,249,249,249,251.10003940295428,,,,,,,,,,251.0551605479559,251.10003940295428,251.10003940295428,251.83890312397853,251.84673614695203,252.05055433895905,None,0,,,,,sub-sepehr,ses-control-base-l-2,run-1,grey,2024-04-25_11h33.05.217,VDT,2023.2.3,None,2024-04-25 11h33.47.481283 +0200,
./images_beh/Sphere_CW-1.5_BG-grey_stim-white.png,0,250,250,250,252.10032343998319,,,,,,,,,,252.0512938599568,252.10032343998319,252.10032343998319,252.8462603809894,252.85267445497448,253.01405209995573,None,0,,,,,sub-sepehr,ses-control-base-l-2,run-1,grey,2024-04-25_11h33.05.217,VDT,2023.2.3,None,2024-04-25 11h33.47.481283 +0200,
./images_beh/Sphere_CW-1.5_BG-grey_stim-white.png,0,251,251,251,253.06171996099874,,,,,,,,,,253.01488055597292,253.0843497409951,253.0843497409951,253.83673219999764,253.83673219999764,254.01905061496655,None,0,,,,,sub-sepehr,ses-control-base-l-2,run-1,grey,2024-04-25_11h33.05.217,VDT,2023.2.3,None,2024-04-25 11h33.47.481283 +0200,
./images_beh/Sphere_CCW-1.5_BG-grey_stim-white.png,0,252,252,252,254.06465250096517,,,,,,,,,,254.01981116796378,254.08447565796087,254.08447565796087,254.83666292595444,254.82874446199276,255.06226808199426,None,0,,,,,sub-sepehr,ses-control-base-l-2,run-1,grey,2024-04-25_11h33.05.217,VDT,2023.2.3,None,2024-04-25 11h33.47.481283 +0200,
./images_beh/Sphere_CW-1.5_BG-grey_stim-white.png,0,253,253,253,255.10715608595638,,,,,,,,,,255.06318638194352,255.10715608595638,255.10715608595638,255.83597516198643,255.85165498795686,256.0455473839538,None,0,,,,,sub-sepehr,ses-control-base-l-2,run-1,grey,2024-04-25_11h33.05.217,VDT,2023.2.3,None,2024-04-25 11h33.47.481283 +0200,
./images_beh/Sphere_Ref_BG-grey_stim-yellow.png,0,254,254,254,256.0928535129642,,,,,,,,,,256.0466905819485,256.0928535129642,256.0928535129642,256.8339310109732,256.8339310109732,257.08318964595674,['space'],0,0.4322379020159133,None,257.07790106296306,257.0825353729888,sub-sepehr,ses-control-base-l-2,run-1,grey,2024-04-25_11h33.05.217,VDT,2023.2.3,None,2024-04-25 11h33.47.481283 +0200,
./images_beh/Sphere_Ref_BG-grey_stim-white.png,0,255,255,255,257.1304548269836,,,,,,,,,,257.08396095997887,257.1304548269836,257.1304548269836,257.843977728975,257.87685098097427,258.05120300897397,None,0,,,,,sub-sepehr,ses-control-base-l-2,run-1,grey,2024-04-25_11h33.05.217,VDT,2023.2.3,None,2024-04-25 11h33.47.481283 +0200,
./images_beh/Sphere_CCW-1.5_BG-grey_stim-white.png,0,256,256,256,258.0996171979932,,,,,,,,,,258.05193101096665,258.0996171979932,258.0996171979932,258.8346924049547,258.8428817349486,259.0331447219942,None,0,,,,,sub-sepehr,ses-control-base-l-2,run-1,grey,2024-04-25_11h33.05.217,VDT,2023.2.3,None,2024-04-25 11h33.47.481283 +0200,
./images_beh/Sphere_CW-1.5_BG-grey_stim-white.png,0,257,257,257,259.07743201300036,,,,,,,,,,259.0338744719629,259.09305064199725,259.09305064199725,259.83218760596355,259.83218760596355,260.09914909198415,None,0,,,260.07559553999454,260.08049811498495,sub-sepehr,ses-control-base-l-2,run-1,grey,2024-04-25_11h33.05.217,VDT,2023.2.3,None,2024-04-25 11h33.47.481283 +0200,
./images_beh/Sphere_CW-1.5_BG-grey_stim-white.png,0,258,258,258,260.14488320297096,,,,,,,,,,260.0997505039559,260.14488320297096,260.14488320297096,260.8331209199969,260.89225934795104,261.0327457799576,None,0,,,,,sub-sepehr,ses-control-base-l-2,run-1,grey,2024-04-25_11h33.05.217,VDT,2023.2.3,None,2024-04-25 11h33.47.481283 +0200,
./images_beh/Sphere_CW-1.5_BG-grey_stim-white.png,0,259,259,259,261.0778795579681,,,,,,,,,,261.0333325389656,261.09225947095547,261.09225947095547,261.8315198950004,261.8315198950004,262.01591627899325,None,0,,,,,sub-sepehr,ses-control-base-l-2,run-1,grey,2024-04-25_11h33.05.217,VDT,2023.2.3,None,2024-04-25 11h33.47.481283 +0200,
./images_beh/Sphere_Ref_BG-grey_stim-yellow.png,0,260,260,260,262.06018224696163,,,,,,,,,,262.01660895498935,262.0806643869728,262.0806643869728,262.82946402195375,262.82396729500033,263.02504316094564,['space'],0,0.3721937600057572,None,,,sub-sepehr,ses-control-base-l-2,run-1,grey,2024-04-25_11h33.05.217,VDT,2023.2.3,None,2024-04-25 11h33.47.481283 +0200,
./images_beh/Sphere_Ref_BG-grey_stim-white.png,0,261,261,261,263.0709181649727,,,,,,,,,,263.02634298894554,263.08084932295606,263.08084932295606,263.83150576398475,263.83150576398475,264.05829376599286,None,0,,,,,sub-sepehr,ses-control-base-l-2,run-1,grey,2024-04-25_11h33.05.217,VDT,2023.2.3,None,2024-04-25 11h33.47.481283 +0200,
./images_beh/Sphere_CCW-1.5_BG-grey_stim-white.png,0,262,262,262,264.10190217994386,,,,,,,,,,264.05894436198287,264.10190217994386,264.10190217994386,264.8426560519729,264.8570054009906,265.0146122939768,None,0,,,,,sub-sepehr,ses-control-base-l-2,run-1,grey,2024-04-25_11h33.05.217,VDT,2023.2.3,None,2024-04-25 11h33.47.481283 +0200,
./images_beh/Sphere_CCW-1.5_BG-grey_stim-yellow.png,0,263,263,263,265.05924633698305,,,,,,,,,,265.0151868639514,265.0903950239881,265.0903950239881,265.8399461559602,265.8299623799976,266.042724695988,['space'],0,0.45827476895647123,None,,,sub-sepehr,ses-control-base-l-2,run-1,grey,2024-04-25_11h33.05.217,VDT,2023.2.3,None,2024-04-25 11h33.47.481283 +0200,
./images_beh/Sphere_CW-1.5_BG-grey_stim-white.png,0,264,264,264,266.09016049996717,,,,,,,,,,266.0437168899807,266.09016049996717,266.09016049996717,266.83952914294787,266.828807467944,267.05670438800007,None,0,,,,,sub-sepehr,ses-control-base-l-2,run-1,grey,2024-04-25_11h33.05.217,VDT,2023.2.3,None,2024-04-25 11h33.47.481283 +0200,
./images_beh/Sphere_CCW-1.5_BG-grey_stim-white.png,0,265,265,265,267.1010574979591,,,,,,,,,,267.05736768094357,267.1010574979591,267.1010574979591,267.83884363796096,267.8460815449944,268.02297554397956,None,0,,,,,sub-sepehr,ses-control-base-l-2,run-1,grey,2024-04-25_11h33.05.217,VDT,2023.2.3,None,2024-04-25 11h33.47.481283 +0200,
./images_beh/Sphere_CW-1.5_BG-grey_stim-white.png,0,266,266,266,268.0730046929675,,,,,,,,,,268.02419814799214,268.094780445972,268.094780445972,268.840896565991,268.840896565991,269.08942251995904,None,0,,,269.08792040194385,269.08792040194385,sub-sepehr,ses-control-base-l-2,run-1,grey,2024-04-25_11h33.05.217,VDT,2023.2.3,None,2024-04-25 11h33.47.481283 +0200,
./images_beh/Sphere_CW-1.5_BG-grey_stim-yellow.png,0,267,267,267,269.13672332599526,,,,,,,,,,269.09037053998327,269.13672332599526,269.13672332599526,269.8372779469937,269.87820212496445,270.0608279609587,['space'],0,0.4921547779813409,None,,,sub-sepehr,ses-control-base-l-2,run-1,grey,2024-04-25_11h33.05.217,VDT,2023.2.3,None,2024-04-25 11h33.47.481283 +0200,
./images_beh/Sphere_CCW-1.5_BG-grey_stim-white.png,0,268,268,268,270.10836295597255,,,,,,,,,,270.06167841894785,270.10836295597255,270.10836295597255,270.83687441499205,270.85381764697377,271.0450259609497,None,0,,,,,sub-sepehr,ses-control-base-l-2,run-1,grey,2024-04-25_11h33.05.217,VDT,2023.2.3,None,2024-04-25 11h33.47.481283 +0200,
./images_beh/Sphere_CCW-1.5_BG-grey_stim-white.png,0,269,269,269,271.09221245598746,,,,,,,,,,271.0457488359534,271.09221245598746,271.09221245598746,271.8367668489809,271.8367668489809,272.02358134795213,None,0,,,,,sub-sepehr,ses-control-base-l-2,run-1,grey,2024-04-25_11h33.05.217,VDT,2023.2.3,None,2024-04-25 11h33.47.481283 +0200,
