image,trials.thisRepN,trials.thisTrialN,trials.thisN,trials.thisIndex,thisRow.t,notes,WaitingForScannerTrigger.started,Vertical.started,key_resp.started,WaitingForScannerTrigger.stopped,key_resp.keys,key_resp.corr,key_resp.rt,key_resp.duration,VDT.started,PresentedLine1.started,key_resp_2.started,FixDot2.started,PresentedLine1.stopped,VDT.stopped,key_resp_2.keys,key_resp_2.corr,key_resp_2.rt,key_resp_2.duration,FixDot2.stopped,key_resp_2.stopped,participant,session,run,BG_color,date,expName,psychopyVersion,frameRate,expStart,
,,,,,,,0.004408466047607362,0.009866920998319983,0.009866920998319983,1.8812336120172404,s,0,1.8225892490008846,None,,,,,,,,,,,,,sub-sepehr,ses-main-stim-z-1,run-1,grey,2024-04-25_13h04.20.182,VDT,2023.2.3,120.37708649106482,2024-04-25 13h05.19.083769 +0200,
./images_beh/Sphere_CCW-1.5_BG-grey_stim-white.png,0,0,0,0,1.9417438060045242,,,,,,,,,,1.9001332060433924,1.9417438060045242,1.9417438060045242,2.6301597140263766,2.6869163869996555,2.837182793999091,None,0,,,,,sub-sepehr,ses-main-stim-z-1,run-1,grey,2024-04-25_13h04.20.182,VDT,2023.2.3,120.37708649106482,2024-04-25 13h05.19.083769 +0200,
./images_beh/Sphere_CCW-1.5_BG-grey_stim-white.png,0,1,1,1,2.8885695460485294,,,,,,,,,,2.840345489035826,2.8885695460485294,2.8885695460485294,3.632319455035031,3.6463266310165636,3.8634738380205818,None,0,,,,,sub-sepehr,ses-main-stim-z-1,run-1,grey,2024-04-25_13h04.20.182,VDT,2023.2.3,120.37708649106482,2024-04-25 13h05.19.083769 +0200,
./images_beh/Sphere_Ref_BG-grey_stim-white.png,0,2,2,2,3.907851906027645,,,,,,,,,,3.8641836320166476,3.907851906027645,3.907851906027645,4.628921805997379,4.651362536009401,4.852727893041447,['space'],0,0.5867911480017938,None,,,sub-sepehr,ses-main-stim-z-1,run-1,grey,2024-04-25_13h04.20.182,VDT,2023.2.3,120.37708649106482,2024-04-25 13h05.19.083769 +0200,
./images_beh/Sphere_CCW-1.5_BG-grey_stim-white.png,0,3,3,3,4.89928025502013,,,,,,,,,,4.8543860600329936,4.89928025502013,4.89928025502013,5.628631854022387,5.644714534049854,5.898399340047035,None,0,,,5.881269550009165,,sub-sepehr,ses-main-stim-z-1,run-1,grey,2024-04-25_13h04.20.182,VDT,2023.2.3,120.37708649106482,2024-04-25 13h05.19.083769 +0200,
./images_beh/Sphere_CW-1.5_BG-grey_stim-white.png,0,4,4,4,5.947920711012557,,,,,,,,,,5.899126274045557,5.947920711012557,5.947920711012557,6.6280175350257196,6.694394981022924,6.8454088540165685,None,0,,,,,sub-sepehr,ses-main-stim-z-1,run-1,grey,2024-04-25_13h04.20.182,VDT,2023.2.3,120.37708649106482,2024-04-25 13h05.19.083769 +0200,
./images_beh/Sphere_CCW-1.5_BG-grey_stim-white.png,0,5,5,5,6.893473181000445,,,,,,,,,,6.846494057041127,6.893473181000445,6.893473181000445,7.627382725011557,7.633676955010742,7.861271978006698,None,0,,,,,sub-sepehr,ses-main-stim-z-1,run-1,grey,2024-04-25_13h04.20.182,VDT,2023.2.3,120.37708649106482,2024-04-25 13h05.19.083769 +0200,
./images_beh/Sphere_Ref_BG-grey_stim-white.png,0,6,6,6,7.907299084996339,,,,,,,,,,7.862296545004938,7.907299084996339,7.907299084996339,8.627171597036067,8.649098984024022,8.818462515017018,['space'],0,0.6268771129543893,None,,,sub-sepehr,ses-main-stim-z-1,run-1,grey,2024-04-25_13h04.20.182,VDT,2023.2.3,120.37708649106482,2024-04-25 13h05.19.083769 +0200,
./images_beh/Sphere_CW-1.5_BG-grey_stim-white.png,0,7,7,7,8.864353219047189,,,,,,,,,,8.819226643012371,8.876319500035606,8.876319500035606,9.63411934504984,9.62691479199566,9.860267859010492,None,0,,,,,sub-sepehr,ses-main-stim-z-1,run-1,grey,2024-04-25_13h04.20.182,VDT,2023.2.3,120.37708649106482,2024-04-25 13h05.19.083769 +0200,
./images_beh/Sphere_CW-1.5_BG-grey_stim-white.png,0,8,8,8,9.906378270010464,,,,,,,,,,9.861369771009777,9.906378270010464,9.906378270010464,10.625581661995966,10.649203947046772,10.79342516703764,None,0,,,,,sub-sepehr,ses-main-stim-z-1,run-1,grey,2024-04-25_13h04.20.182,VDT,2023.2.3,120.37708649106482,2024-04-25 13h05.19.083769 +0200,
./images_beh/Sphere_CW-1.5_BG-grey_stim-white.png,0,9,9,9,10.83927458600374,,,,,,,,,,10.794667743030004,10.882554523006547,10.882554523006547,11.624986807000823,11.624986807000823,11.799062284000684,None,0,,,,,sub-sepehr,ses-main-stim-z-1,run-1,grey,2024-04-25_13h04.20.182,VDT,2023.2.3,120.37708649106482,2024-04-25 13h05.19.083769 +0200,
./images_beh/Sphere_CW-1.5_BG-grey_stim-white.png,0,10,10,10,11.842857645009644,,,,,,,,,,11.799819575040601,11.882068050035741,11.882068050035741,12.624561214004643,12.624561214004643,12.89732012100285,None,0,,,12.863475350022782,12.88008048402844,sub-sepehr,ses-main-stim-z-1,run-1,grey,2024-04-25_13h04.20.182,VDT,2023.2.3,120.37708649106482,2024-04-25 13h05.19.083769 +0200,
./images_beh/Sphere_Ref_BG-grey_stim-white.png,0,11,11,11,12.944337968016043,,,,,,,,,,12.89806562603917,12.944337968016043,12.944337968016043,13.624037988018245,13.690500323020387,13.880557743017562,['space'],0,0.6375758969807066,None,13.86344328901032,,sub-sepehr,ses-main-stim-z-1,run-1,grey,2024-04-25_13h04.20.182,VDT,2023.2.3,120.37708649106482,2024-04-25 13h05.19.083769 +0200,
./images_beh/Sphere_CCW-1.5_BG-grey_stim-white.png,0,12,12,12,13.92798857903108,,,,,,,,,,13.881322073051706,13.92798857903108,13.92798857903108,14.62634847901063,14.673736766038928,14.826814756030217,None,0,,,,,sub-sepehr,ses-main-stim-z-1,run-1,grey,2024-04-25_13h04.20.182,VDT,2023.2.3,120.37708649106482,2024-04-25 13h05.19.083769 +0200,
./images_beh/Sphere_CCW-1.5_BG-grey_stim-white.png,0,13,13,13,14.873540094995406,,,,,,,,,,14.827542611048557,14.87897190201329,14.87897190201329,15.630282733996864,15.623371392022818,15.840625230048317,None,0,,,,,sub-sepehr,ses-main-stim-z-1,run-1,grey,2024-04-25_13h04.20.182,VDT,2023.2.3,120.37708649106482,2024-04-25 13h05.19.083769 +0200,
./images_beh/Sphere_Ref_BG-grey_stim-white.png,0,14,14,14,15.883285664021969,,,,,,,,,,15.841424159007147,15.883285664021969,15.883285664021969,16.63924977404531,16.63924977404531,16.846498835016973,['space'],0,0.6675440659746528,None,,,sub-sepehr,ses-main-stim-z-1,run-1,grey,2024-04-25_13h04.20.182,VDT,2023.2.3,120.37708649106482,2024-04-25 13h05.19.083769 +0200,
./images_beh/Sphere_CW-1.5_BG-grey_stim-white.png,0,15,15,15,16.89001160900807,,,,,,,,,,16.84730721701635,16.89001160900807,16.89001160900807,17.629665487038437,17.63883165101288,17.795841185026802,None,0,,,,,sub-sepehr,ses-main-stim-z-1,run-1,grey,2024-04-25_13h04.20.182,VDT,2023.2.3,120.37708649106482,2024-04-25 13h05.19.083769 +0200,
./images_beh/Sphere_CW-1.5_BG-grey_stim-white.png,0,16,16,16,17.841630208014976,,,,,,,,,,17.796476369025186,17.87765090703033,17.87765090703033,18.62827303202357,18.621577719051857,18.844844956998713,None,0,,,,,sub-sepehr,ses-main-stim-z-1,run-1,grey,2024-04-25_13h04.20.182,VDT,2023.2.3,120.37708649106482,2024-04-25 13h05.19.083769 +0200,
./images_beh/Sphere_CCW-1.5_BG-grey_stim-white.png,0,17,17,17,18.891939260996878,,,,,,,,,,18.845591320015956,18.891939260996878,18.891939260996878,19.62895537301665,19.637878798006568,19.84493924101116,None,0,,,,,sub-sepehr,ses-main-stim-z-1,run-1,grey,2024-04-25_13h04.20.182,VDT,2023.2.3,120.37708649106482,2024-04-25 13h05.19.083769 +0200,
./images_beh/Sphere_CW-1.5_BG-grey_stim-white.png,0,18,18,18,19.893100718036294,,,,,,,,,,19.845681595033966,19.893100718036294,19.893100718036294,20.627867709030397,20.637320211040787,20.845179496041965,None,0,,,,,sub-sepehr,ses-main-stim-z-1,run-1,grey,2024-04-25_13h04.20.182,VDT,2023.2.3,120.37708649106482,2024-04-25 13h05.19.083769 +0200,
./images_beh/Sphere_CW-1.5_BG-grey_stim-white.png,0,19,19,19,20.894707694009412,,,,,,,,,,20.84618972300086,20.894707694009412,20.894707694009412,21.627514971012715,21.636586642998736,21.843864813039545,None,0,,,,,sub-sepehr,ses-main-stim-z-1,run-1,grey,2024-04-25_13h04.20.182,VDT,2023.2.3,120.37708649106482,2024-04-25 13h05.19.083769 +0200,
./images_beh/Sphere_CW-1.5_BG-grey_stim-white.png,0,20,20,20,21.893226408050396,,,,,,,,,,21.84458643500693,21.893226408050396,21.893226408050396,22.626316934998613,22.636105109995697,22.826564009010326,None,0,,,,,sub-sepehr,ses-main-stim-z-1,run-1,grey,2024-04-25_13h04.20.182,VDT,2023.2.3,120.37708649106482,2024-04-25 13h05.19.083769 +0200,
./images_beh/Sphere_Ref_BG-grey_stim-white.png,0,21,21,21,22.872597983048763,,,,,,,,,,22.827162760018837,22.886005014006514,22.886005014006514,23.624599265051074,23.624599265051074,23.819462902029045,['space'],0,0.560266034968663,None,,,sub-sepehr,ses-main-stim-z-1,run-1,grey,2024-04-25_13h04.20.182,VDT,2023.2.3,120.37708649106482,2024-04-25 13h05.19.083769 +0200,
./images_beh/Sphere_CCW-1.5_BG-grey_stim-white.png,0,22,22,22,23.86325467802817,,,,,,,,,,23.820689629996195,23.874034587002825,23.874034587002825,24.62521553604165,24.618658522027545,24.888867831032258,None,0,,,24.871050862013362,24.871050862013362,sub-sepehr,ses-main-stim-z-1,run-1,grey,2024-04-25_13h04.20.182,VDT,2023.2.3,120.37708649106482,2024-04-25 13h05.19.083769 +0200,
./images_beh/Sphere_CW-1.5_BG-grey_stim-white.png,0,23,23,23,24.939371617045254,,,,,,,,,,24.88959412201075,24.939371617045254,24.939371617045254,25.63731819303939,25.684959742007777,25.84225161204813,None,0,,,,,sub-sepehr,ses-main-stim-z-1,run-1,grey,2024-04-25_13h04.20.182,VDT,2023.2.3,120.37708649106482,2024-04-25 13h05.19.083769 +0200,
./images_beh/Sphere_CCW-1.5_BG-grey_stim-white.png,0,24,24,24,25.8923087430303,,,,,,,,,,25.843094561016187,25.8923087430303,25.8923087430303,26.634260990016628,26.641333813022356,26.82658488600282,None,0,,,,,sub-sepehr,ses-main-stim-z-1,run-1,grey,2024-04-25_13h04.20.182,VDT,2023.2.3,120.37708649106482,2024-04-25 13h05.19.083769 +0200,
./images_beh/Sphere_Ref_BG-grey_stim-white.png,0,25,25,25,26.87432909704512,,,,,,,,,,26.82750155503163,26.884395008033607,26.884395008033607,27.624888428021222,27.624888428021222,27.851297231041826,None,0,,,,,sub-sepehr,ses-main-stim-z-1,run-1,grey,2024-04-25_13h04.20.182,VDT,2023.2.3,120.37708649106482,2024-04-25 13h05.19.083769 +0200,
./images_beh/Sphere_CCW-1.5_BG-grey_stim-white.png,0,26,26,26,27.900968128000386,,,,,,,,,,27.852273215015884,27.900968128000386,27.900968128000386,28.625177032023203,28.65018396504456,28.82403128501028,None,0,,,,,sub-sepehr,ses-main-stim-z-1,run-1,grey,2024-04-25_13h04.20.182,VDT,2023.2.3,120.37708649106482,2024-04-25 13h05.19.083769 +0200,
./images_beh/Sphere_CCW-1.5_BG-grey_stim-white.png,0,27,27,27,28.869912416033912,,,,,,,,,,28.82474514603382,28.88276551902527,28.88276551902527,29.62346916500246,29.62346916500246,29.83438846899662,None,0,,,,,sub-sepehr,ses-main-stim-z-1,run-1,grey,2024-04-25_13h04.20.182,VDT,2023.2.3,120.37708649106482,2024-04-25 13h05.19.083769 +0200,
./images_beh/Sphere_Ref_BG-grey_stim-white.png,0,28,28,28,29.882257832039613,,,,,,,,,,29.83517363399733,29.882257832039613,29.882257832039613,30.621165794029366,30.621165794029366,30.790822894021403,['space'],0,0.6037061789538711,None,,,sub-sepehr,ses-main-stim-z-1,run-1,grey,2024-04-25_13h04.20.182,VDT,2023.2.3,120.37708649106482,2024-04-25 13h05.19.083769 +0200,
./images_beh/Sphere_CCW-1.5_BG-grey_stim-white.png,0,29,29,29,30.84006194502581,,,,,,,,,,30.79211870400468,30.871480051020626,30.871480051020626,31.622518010030035,31.622518010030035,31.836026549048256,None,0,,,,,sub-sepehr,ses-main-stim-z-1,run-1,grey,2024-04-25_13h04.20.182,VDT,2023.2.3,120.37708649106482,2024-04-25 13h05.19.083769 +0200,
./images_beh/Sphere_CCW-1.5_BG-grey_stim-white.png,0,30,30,30,31.88602803804679,,,,,,,,,,31.836904473020695,31.88602803804679,31.88602803804679,32.63497805199586,32.64794107002672,32.83972361101769,None,0,,,,,sub-sepehr,ses-main-stim-z-1,run-1,grey,2024-04-25_13h04.20.182,VDT,2023.2.3,120.37708649106482,2024-04-25 13h05.19.083769 +0200,
./images_beh/Sphere_CCW-1.5_BG-grey_stim-white.png,0,31,31,31,32.88967601000331,,,,,,,,,,32.840450632036664,32.88967601000331,32.88967601000331,33.63077464600792,33.6383888280252,33.82084425602807,None,0,,,,,sub-sepehr,ses-main-stim-z-1,run-1,grey,2024-04-25_13h04.20.182,VDT,2023.2.3,120.37708649106482,2024-04-25 13h05.19.083769 +0200,
./images_beh/Sphere_CW-1.5_BG-grey_stim-white.png,0,32,32,32,33.86364897200838,,,,,,,,,,33.82149992202176,33.86934147402644,33.86934147402644,34.62059531104751,34.6136638650205,34.80494937504409,None,0,,,,,sub-sepehr,ses-main-stim-z-1,run-1,grey,2024-04-25_13h04.20.182,VDT,2023.2.3,120.37708649106482,2024-04-25 13h05.19.083769 +0200,
./images_beh/Sphere_Ref_BG-grey_stim-white.png,0,33,33,33,34.85197859804612,,,,,,,,,,34.80567522899946,34.88000327104237,34.88000327104237,35.62948810501257,35.61932041501859,35.833516640996095,['space'],0,0.5261285629821941,None,,,sub-sepehr,ses-main-stim-z-1,run-1,grey,2024-04-25_13h04.20.182,VDT,2023.2.3,120.37708649106482,2024-04-25 13h05.19.083769 +0200,
./images_beh/Sphere_CW-1.5_BG-grey_stim-white.png,0,34,34,34,35.88314690900734,,,,,,,,,,35.83446879504481,35.88314690900734,35.88314690900734,36.63247427804163,36.63247427804163,36.84719046403188,None,0,,,,,sub-sepehr,ses-main-stim-z-1,run-1,grey,2024-04-25_13h04.20.182,VDT,2023.2.3,120.37708649106482,2024-04-25 13h05.19.083769 +0200,
./images_beh/Sphere_CW-1.5_BG-grey_stim-white.png,0,35,35,35,36.89447503600968,,,,,,,,,,36.84797518100822,36.89447503600968,36.89447503600968,37.62882024102146,37.63561441999627,37.90047402901109,None,0,,,37.86881988402456,37.883817055029795,sub-sepehr,ses-main-stim-z-1,run-1,grey,2024-04-25_13h04.20.182,VDT,2023.2.3,120.37708649106482,2024-04-25 13h05.19.083769 +0200,
./images_beh/Sphere_CCW-1.5_BG-grey_stim-white.png,0,36,36,36,37.94369192502927,,,,,,,,,,37.900975421012845,37.94369192502927,37.94369192502927,38.62847186101135,38.68573769601062,38.802092669997364,None,0,,,,,sub-sepehr,ses-main-stim-z-1,run-1,grey,2024-04-25_13h04.20.182,VDT,2023.2.3,120.37708649106482,2024-04-25 13h05.19.083769 +0200,
./images_beh/Sphere_CW-1.5_BG-grey_stim-white.png,0,37,37,37,38.845183602999896,,,,,,,,,,38.802864467026666,38.87867999804439,38.87867999804439,39.630751571035944,39.61765277100494,39.82822205504635,None,0,,,,,sub-sepehr,ses-main-stim-z-1,run-1,grey,2024-04-25_13h04.20.182,VDT,2023.2.3,120.37708649106482,2024-04-25 13h05.19.083769 +0200,
./images_beh/Sphere_CCW-1.5_BG-grey_stim-white.png,0,38,38,38,39.86508506501559,,,,,,,,,,39.828878425003495,39.877795746026095,39.877795746026095,40.6273507210426,40.616686602006666,40.834314252017066,None,0,,,,,sub-sepehr,ses-main-stim-z-1,run-1,grey,2024-04-25_13h04.20.182,VDT,2023.2.3,120.37708649106482,2024-04-25 13h05.19.083769 +0200,
./images_beh/Sphere_CW-1.5_BG-grey_stim-white.png,0,39,39,39,40.880984621995594,,,,,,,,,,40.83498868404422,40.880984621995594,40.880984621995594,41.626829607004765,41.626829607004765,41.834483902028296,None,0,,,,,sub-sepehr,ses-main-stim-z-1,run-1,grey,2024-04-25_13h04.20.182,VDT,2023.2.3,120.37708649106482,2024-04-25 13h05.19.083769 +0200,
./images_beh/Sphere_Ref_BG-grey_stim-white.png,0,40,40,40,41.87820890301373,,,,,,,,,,41.83517753100023,41.87820890301373,41.87820890301373,42.62544788001105,42.62544788001105,42.860564056027215,['space'],0,0.5275558209978044,None,,,sub-sepehr,ses-main-stim-z-1,run-1,grey,2024-04-25_13h04.20.182,VDT,2023.2.3,120.37708649106482,2024-04-25 13h05.19.083769 +0200,
./images_beh/Sphere_CW-1.5_BG-grey_stim-white.png,0,41,41,41,42.90865376003785,,,,,,,,,,42.861874103022274,42.90865376003785,42.90865376003785,43.62608647701563,43.648996914038435,43.86013615503907,None,0,,,,,sub-sepehr,ses-main-stim-z-1,run-1,grey,2024-04-25_13h04.20.182,VDT,2023.2.3,120.37708649106482,2024-04-25 13h05.19.083769 +0200,
./images_beh/Sphere_CCW-1.5_BG-grey_stim-white.png,0,42,42,42,43.90962428104831,,,,,,,,,,43.86103141703643,43.90962428104831,43.90962428104831,44.625146837031934,44.65863509103656,44.81695980305085,None,0,,,,,sub-sepehr,ses-main-stim-z-1,run-1,grey,2024-04-25_13h04.20.182,VDT,2023.2.3,120.37708649106482,2024-04-25 13h05.19.083769 +0200,
./images_beh/Sphere_CW-1.5_BG-grey_stim-white.png,0,43,43,43,44.86446395301027,,,,,,,,,,44.81778780504828,44.87450052902568,44.87450052902568,45.62450663704658,45.61401001701597,45.84883297805209,['space'],0,0.718573807971552,None,,,sub-sepehr,ses-main-stim-z-1,run-1,grey,2024-04-25_13h04.20.182,VDT,2023.2.3,120.37708649106482,2024-04-25 13h05.19.083769 +0200,
./images_beh/Sphere_Ref_BG-grey_stim-white.png,0,44,44,44,45.895446917042136,,,,,,,,,,45.85014316503657,45.895446917042136,45.895446917042136,46.62433768901974,46.64068218000466,46.82524510403164,['space'],0,0.8388649530243129,None,,,sub-sepehr,ses-main-stim-z-1,run-1,grey,2024-04-25_13h04.20.182,VDT,2023.2.3,120.37708649106482,2024-04-25 13h05.19.083769 +0200,
./images_beh/Sphere_CW-1.5_BG-grey_stim-white.png,0,45,45,45,46.86709079000866,,,,,,,,,,46.826175519032404,46.873621954000555,46.873621954000555,47.630981972033624,47.613337918010075,47.81425123603549,None,0,,,,,sub-sepehr,ses-main-stim-z-1,run-1,grey,2024-04-25_13h04.20.182,VDT,2023.2.3,120.37708649106482,2024-04-25 13h05.19.083769 +0200,
./images_beh/Sphere_CCW-1.5_BG-grey_stim-white.png,0,46,46,46,47.85955009202007,,,,,,,,,,47.81505808304064,47.87993571005063,47.87993571005063,48.62356829101918,48.62356829101918,48.8307712150272,None,0,,,,,sub-sepehr,ses-main-stim-z-1,run-1,grey,2024-04-25_13h04.20.182,VDT,2023.2.3,120.37708649106482,2024-04-25 13h05.19.083769 +0200,
./images_beh/Sphere_Ref_BG-grey_stim-white.png,0,47,47,47,48.87822145503014,,,,,,,,,,48.831486127048265,48.89008055604063,48.89008055604063,49.630460141052026,49.630460141052026,49.790513276995625,['space'],0,0.5965221109800041,None,,,sub-sepehr,ses-main-stim-z-1,run-1,grey,2024-04-25_13h04.20.182,VDT,2023.2.3,120.37708649106482,2024-04-25 13h05.19.083769 +0200,
./images_beh/Sphere_CW-1.5_BG-grey_stim-white.png,0,48,48,48,49.83816641202429,,,,,,,,,,49.79150218999712,49.87845511804335,49.87845511804335,50.629340298008174,50.62242771702586,50.84575906203827,None,0,,,,,sub-sepehr,ses-main-stim-z-1,run-1,grey,2024-04-25_13h04.20.182,VDT,2023.2.3,120.37708649106482,2024-04-25 13h05.19.083769 +0200,
./images_beh/Sphere_CCW-1.5_BG-grey_stim-white.png,0,49,49,49,50.89234858704731,,,,,,,,,,50.846465241047554,50.89234858704731,50.89234858704731,51.63054801803082,51.63804256502772,51.804768784029875,None,0,,,,,sub-sepehr,ses-main-stim-z-1,run-1,grey,2024-04-25_13h04.20.182,VDT,2023.2.3,120.37708649106482,2024-04-25 13h05.19.083769 +0200,
./images_beh/Sphere_Ref_BG-grey_stim-white.png,0,50,50,50,51.84835250704782,,,,,,,,,,51.8051693669986,51.87571125803515,51.87571125803515,52.62828675203491,52.621188535995316,52.80533818900585,None,0,,,,,sub-sepehr,ses-main-stim-z-1,run-1,grey,2024-04-25_13h04.20.182,VDT,2023.2.3,120.37708649106482,2024-04-25 13h05.19.083769 +0200,
./images_beh/Sphere_CCW-1.5_BG-grey_stim-white.png,0,51,51,51,52.85281227901578,,,,,,,,,,52.80627413804177,52.876210544025525,52.876210544025525,53.6266481570201,53.62043395603541,53.821327133046,None,0,,,,,sub-sepehr,ses-main-stim-z-1,run-1,grey,2024-04-25_13h04.20.182,VDT,2023.2.3,120.37708649106482,2024-04-25 13h05.19.083769 +0200,
./images_beh/Sphere_CW-1.5_BG-grey_stim-white.png,0,52,52,52,53.86929034499917,,,,,,,,,,53.82231554604368,53.87448127102107,53.87448127102107,54.62671321199741,54.6199245339958,54.80426908202935,None,0,,,,,sub-sepehr,ses-main-stim-z-1,run-1,grey,2024-04-25_13h04.20.182,VDT,2023.2.3,120.37708649106482,2024-04-25 13h05.19.083769 +0200,
./images_beh/Sphere_CCW-1.5_BG-grey_stim-white.png,0,53,53,53,54.84932098700665,,,,,,,,,,54.805151023028884,54.87474236905109,54.87474236905109,55.62674004602013,55.619479692017194,55.787355294043664,None,0,,,,,sub-sepehr,ses-main-stim-z-1,run-1,grey,2024-04-25_13h04.20.182,VDT,2023.2.3,120.37708649106482,2024-04-25 13h05.19.083769 +0200,
./images_beh/Sphere_CW-1.5_BG-grey_stim-white.png,0,54,54,54,55.83359975903295,,,,,,,,,,55.78838802705286,55.87580152699957,55.87580152699957,56.625122600002214,56.61894458002644,56.82624666404445,None,0,,,,,sub-sepehr,ses-main-stim-z-1,run-1,grey,2024-04-25_13h04.20.182,VDT,2023.2.3,120.37708649106482,2024-04-25 13h05.19.083769 +0200,
./images_beh/Sphere_CW-1.5_BG-grey_stim-white.png,0,55,55,55,56.873671725043096,,,,,,,,,,56.82710276701255,56.88501880900003,56.88501880900003,57.62507401604671,57.62507401604671,57.8049008930102,None,0,,,,,sub-sepehr,ses-main-stim-z-1,run-1,grey,2024-04-25_13h04.20.182,VDT,2023.2.3,120.37708649106482,2024-04-25 13h05.19.083769 +0200,
./images_beh/Sphere_CW-1.5_BG-grey_stim-white.png,0,56,56,56,57.851898060005624,,,,,,,,,,57.80563113203971,57.87360821600305,57.87360821600305,58.63770800601924,58.63770800601924,58.83809927600669,None,0,,,,,sub-sepehr,ses-main-stim-z-1,run-1,grey,2024-04-25_13h04.20.182,VDT,2023.2.3,120.37708649106482,2024-04-25 13h05.19.083769 +0200,
./images_beh/Sphere_Ref_BG-grey_stim-white.png,0,57,57,57,58.8865585810272,,,,,,,,,,58.83892057900084,58.8865585810272,58.8865585810272,59.62439319002442,59.63409857702209,59.818125438003335,['space'],0,0.6327203189721331,None,,,sub-sepehr,ses-main-stim-z-1,run-1,grey,2024-04-25_13h04.20.182,VDT,2023.2.3,120.37708649106482,2024-04-25 13h05.19.083769 +0200,
./images_beh/Sphere_CCW-1.5_BG-grey_stim-white.png,0,58,58,58,59.86350435501663,,,,,,,,,,59.81953495001653,59.872868552047294,59.872868552047294,60.62355113500962,60.61708540300606,60.82424375601113,None,0,,,,,sub-sepehr,ses-main-stim-z-1,run-1,grey,2024-04-25_13h04.20.182,VDT,2023.2.3,120.37708649106482,2024-04-25 13h05.19.083769 +0200,
./images_beh/Sphere_CCW-1.5_BG-grey_stim-white.png,0,59,59,59,60.87003463704605,,,,,,,,,,60.82483019004576,60.88333121902542,60.88333121902542,61.622583087999374,61.622583087999374,61.82429802999832,None,0,,,,,sub-sepehr,ses-main-stim-z-1,run-1,grey,2024-04-25_13h04.20.182,VDT,2023.2.3,120.37708649106482,2024-04-25 13h05.19.083769 +0200,
./images_beh/Sphere_Ref_BG-grey_stim-white.png,0,60,60,60,61.87247445603134,,,,,,,,,,61.82502387999557,61.88238383503631,61.88238383503631,62.63492864801083,62.63492864801083,62.817416143021546,None,0,,,,,sub-sepehr,ses-main-stim-z-1,run-1,grey,2024-04-25_13h04.20.182,VDT,2023.2.3,120.37708649106482,2024-04-25 13h05.19.083769 +0200,
./images_beh/Sphere_CCW-1.5_BG-grey_stim-white.png,0,61,61,61,62.86338979302673,,,,,,,,,,62.81821244501043,62.88261573400814,62.88261573400814,63.62367240304593,63.62367240304593,63.81658443203196,None,0,,,,,sub-sepehr,ses-main-stim-z-1,run-1,grey,2024-04-25_13h04.20.182,VDT,2023.2.3,120.37708649106482,2024-04-25 13h05.19.083769 +0200,
./images_beh/Sphere_CCW-1.5_BG-grey_stim-white.png,0,62,62,62,63.86430078401463,,,,,,,,,,63.81784626102308,63.87040890799835,63.87040890799835,64.62212785304291,64.61496928904671,64.8494832800352,None,0,,,,,sub-sepehr,ses-main-stim-z-1,run-1,grey,2024-04-25_13h04.20.182,VDT,2023.2.3,120.37708649106482,2024-04-25 13h05.19.083769 +0200,
./images_beh/Sphere_CW-1.5_BG-grey_stim-white.png,0,63,63,63,64.89733050699579,,,,,,,,,,64.85034834401449,64.89733050699579,64.89733050699579,65.62296957999934,65.63855193904601,65.84918082103832,None,0,,,,,sub-sepehr,ses-main-stim-z-1,run-1,grey,2024-04-25_13h04.20.182,VDT,2023.2.3,120.37708649106482,2024-04-25 13h05.19.083769 +0200,
./images_beh/Sphere_CCW-1.5_BG-grey_stim-white.png,0,64,64,64,65.89654333202634,,,,,,,,,,65.85021375899669,65.89654333202634,65.89654333202634,66.62184368702583,66.63724058202934,66.88149639603216,None,0,,,66.86370045103831,,sub-sepehr,ses-main-stim-z-1,run-1,grey,2024-04-25_13h04.20.182,VDT,2023.2.3,120.37708649106482,2024-04-25 13h05.19.083769 +0200,
./images_beh/Sphere_Ref_BG-grey_stim-white.png,0,65,65,65,66.92895759502426,,,,,,,,,,66.88226273102919,66.92895759502426,66.92895759502426,67.629507509002,67.67013219103683,67.83815022400813,['space'],0,0.5025128099950962,None,,,sub-sepehr,ses-main-stim-z-1,run-1,grey,2024-04-25_13h04.20.182,VDT,2023.2.3,120.37708649106482,2024-04-25 13h05.19.083769 +0200,
./images_beh/Sphere_CW-1.5_BG-grey_stim-white.png,0,66,66,66,67.88614758301992,,,,,,,,,,67.8391111230012,67.88614758301992,67.88614758301992,68.62957676203223,68.62957676203223,68.83759129204554,None,0,,,,,sub-sepehr,ses-main-stim-z-1,run-1,grey,2024-04-25_13h04.20.182,VDT,2023.2.3,120.37708649106482,2024-04-25 13h05.19.083769 +0200,
./images_beh/Sphere_CW-1.5_BG-grey_stim-white.png,0,67,67,67,68.88588186103152,,,,,,,,,,68.83837062801467,68.88588186103152,68.88588186103152,69.62906859000213,69.62906859000213,69.835277677048,None,0,,,,,sub-sepehr,ses-main-stim-z-1,run-1,grey,2024-04-25_13h04.20.182,VDT,2023.2.3,120.37708649106482,2024-04-25 13h05.19.083769 +0200,
./images_beh/Sphere_Ref_BG-grey_stim-white.png,0,68,68,68,69.87681323400466,,,,,,,,,,69.8357796909986,69.87681323400466,69.87681323400466,70.62826719501754,70.61686175502837,70.88186024699826,['space'],0,0.6576509220176376,None,70.86786665202817,70.86786665202817,sub-sepehr,ses-main-stim-z-1,run-1,grey,2024-04-25_13h04.20.182,VDT,2023.2.3,120.37708649106482,2024-04-25 13h05.19.083769 +0200,
./images_beh/Sphere_CW-1.5_BG-grey_stim-white.png,0,69,69,69,70.92956404900178,,,,,,,,,,70.88304822501959,70.92956404900178,70.92956404900178,71.63057319901418,71.67819694901118,71.81924328103196,None,0,,,,,sub-sepehr,ses-main-stim-z-1,run-1,grey,2024-04-25_13h04.20.182,VDT,2023.2.3,120.37708649106482,2024-04-25 13h05.19.083769 +0200,
./images_beh/Sphere_CCW-1.5_BG-grey_stim-white.png,0,70,70,70,71.8654960130225,,,,,,,,,,71.81999486603308,71.87807229300961,71.87807229300961,72.62773878901498,72.61759529000847,72.82883371802745,None,0,,,,,sub-sepehr,ses-main-stim-z-1,run-1,grey,2024-04-25_13h04.20.182,VDT,2023.2.3,120.37708649106482,2024-04-25 13h05.19.083769 +0200,
./images_beh/Sphere_CCW-1.5_BG-grey_stim-white.png,0,71,71,71,72.87572296400322,,,,,,,,,,72.82992174802348,72.88144589902367,72.88144589902367,73.62741707602981,73.62741707602981,73.84467041800963,None,0,,,,,sub-sepehr,ses-main-stim-z-1,run-1,grey,2024-04-25_13h04.20.182,VDT,2023.2.3,120.37708649106482,2024-04-25 13h05.19.083769 +0200,
./images_beh/Sphere_CW-1.5_BG-grey_stim-white.png,0,72,72,72,73.89455540501513,,,,,,,,,,73.84553417103598,73.89455540501513,73.89455540501513,74.62648421502672,74.64340639900183,74.84416142402915,None,0,,,,,sub-sepehr,ses-main-stim-z-1,run-1,grey,2024-04-25_13h04.20.182,VDT,2023.2.3,120.37708649106482,2024-04-25 13h05.19.083769 +0200,
./images_beh/Sphere_CW-1.5_BG-grey_stim-white.png,0,73,73,73,74.89342932600994,,,,,,,,,,74.84532980102813,74.89342932600994,74.89342932600994,75.62610430800123,75.63251795404358,75.81704948702827,None,0,,,,,sub-sepehr,ses-main-stim-z-1,run-1,grey,2024-04-25_13h04.20.182,VDT,2023.2.3,120.37708649106482,2024-04-25 13h05.19.083769 +0200,
./images_beh/Sphere_Ref_BG-grey_stim-white.png,0,74,74,74,75.86148196604336,,,,,,,,,,75.81763841200154,75.88192897301633,75.88192897301633,76.625796508044,76.625796508044,76.84337191603845,None,0,,,,,sub-sepehr,ses-main-stim-z-1,run-1,grey,2024-04-25_13h04.20.182,VDT,2023.2.3,120.37708649106482,2024-04-25 13h05.19.083769 +0200,
./images_beh/Sphere_CCW-1.5_BG-grey_stim-white.png,0,75,75,75,76.89071496104589,,,,,,,,,,76.84433855302632,76.89071496104589,76.89071496104589,77.62767503102077,77.64380786201218,77.82630763005,None,0,,,,,sub-sepehr,ses-main-stim-z-1,run-1,grey,2024-04-25_13h04.20.182,VDT,2023.2.3,120.37708649106482,2024-04-25 13h05.19.083769 +0200,
./images_beh/Sphere_CW-1.5_BG-grey_stim-white.png,0,76,76,76,77.87396803899901,,,,,,,,,,77.82722345599905,77.87997656303924,77.87997656303924,78.62462211202364,78.62462211202364,78.84952936100308,None,0,,,,,sub-sepehr,ses-main-stim-z-1,run-1,grey,2024-04-25_13h04.20.182,VDT,2023.2.3,120.37708649106482,2024-04-25 13h05.19.083769 +0200,
./images_beh/Sphere_Ref_BG-grey_stim-white.png,0,77,77,77,78.89859851205256,,,,,,,,,,78.8502599960193,78.89859851205256,78.89859851205256,79.62629503302742,79.64787519600941,79.79925713100238,['space'],0,0.5956044549820945,None,,,sub-sepehr,ses-main-stim-z-1,run-1,grey,2024-04-25_13h04.20.182,VDT,2023.2.3,120.37708649106482,2024-04-25 13h05.19.083769 +0200,
./images_beh/Sphere_CW-1.5_BG-grey_stim-white.png,0,78,78,78,79.84688389900839,,,,,,,,,,79.80033854104113,79.88063001004048,79.88063001004048,80.6236427820404,80.6236427820404,80.7909008670249,None,0,,,,,sub-sepehr,ses-main-stim-z-1,run-1,grey,2024-04-25_13h04.20.182,VDT,2023.2.3,120.37708649106482,2024-04-25 13h05.19.083769 +0200,
./images_beh/Sphere_CCW-1.5_BG-grey_stim-white.png,0,79,79,79,80.83777320705121,,,,,,,,,,80.79219678300433,80.87931528501213,80.87931528501213,81.62948914105073,81.62289205699926,81.84740349004278,None,0,,,,,sub-sepehr,ses-main-stim-z-1,run-1,grey,2024-04-25_13h04.20.182,VDT,2023.2.3,120.37708649106482,2024-04-25 13h05.19.083769 +0200,
./images_beh/Sphere_CCW-1.5_BG-grey_stim-white.png,0,80,80,80,81.8948018210358,,,,,,,,,,81.84805575601058,81.8948018210358,81.8948018210358,82.63094710500445,82.63999688101467,82.79050232702866,None,0,,,,,sub-sepehr,ses-main-stim-z-1,run-1,grey,2024-04-25_13h04.20.182,VDT,2023.2.3,120.37708649106482,2024-04-25 13h05.19.083769 +0200,
./images_beh/Sphere_CCW-1.5_BG-grey_stim-white.png,0,81,81,81,82.83663618803257,,,,,,,,,,82.79132686404046,82.87873592803953,82.87873592803953,83.628464198031,83.62189960799878,83.86276281904429,None,0,,,,,sub-sepehr,ses-main-stim-z-1,run-1,grey,2024-04-25_13h04.20.182,VDT,2023.2.3,120.37708649106482,2024-04-25 13h05.19.083769 +0200,
./images_beh/Sphere_Ref_BG-grey_stim-white.png,0,82,82,82,83.90961097500985,,,,,,,,,,83.86349710001377,83.90961097500985,83.90961097500985,84.62702367303427,84.65407335601049,84.86209014104679,['space'],0,0.6086870460421778,None,,,sub-sepehr,ses-main-stim-z-1,run-1,grey,2024-04-25_13h04.20.182,VDT,2023.2.3,120.37708649106482,2024-04-25 13h05.19.083769 +0200,
./images_beh/Sphere_CW-1.5_BG-grey_stim-white.png,0,83,83,83,84.90693616605131,,,,,,,,,,84.86284992500441,84.90693616605131,84.90693616605131,85.62902725901222,85.65481291204924,85.81209222704638,None,0,,,,,sub-sepehr,ses-main-stim-z-1,run-1,grey,2024-04-25_13h04.20.182,VDT,2023.2.3,120.37708649106482,2024-04-25 13h05.19.083769 +0200,
./images_beh/Sphere_CCW-1.5_BG-grey_stim-white.png,0,84,84,84,85.859479389037,,,,,,,,,,85.81281616003253,85.87601956201252,85.87601956201252,86.6274344070116,86.62059253599728,86.82333304401254,None,0,,,,,sub-sepehr,ses-main-stim-z-1,run-1,grey,2024-04-25_13h04.20.182,VDT,2023.2.3,120.37708649106482,2024-04-25 13h05.19.083769 +0200,
./images_beh/Sphere_Ref_BG-grey_stim-white.png,0,85,85,85,86.8699507410056,,,,,,,,,,86.82406754104886,86.87518107902724,86.87518107902724,87.62643772200681,87.61965624504955,87.9040380770457,None,0,,,87.86962107999716,87.86962107999716,sub-sepehr,ses-main-stim-z-1,run-1,grey,2024-04-25_13h04.20.182,VDT,2023.2.3,120.37708649106482,2024-04-25 13h05.19.083769 +0200,
./images_beh/Sphere_CCW-1.5_BG-grey_stim-white.png,0,86,86,86,87.95250638201833,,,,,,,,,,87.90528240799904,87.95250638201833,87.95250638201833,88.62733565503731,88.69216227903962,88.84352938103257,None,0,,,,,sub-sepehr,ses-main-stim-z-1,run-1,grey,2024-04-25_13h04.20.182,VDT,2023.2.3,120.37708649106482,2024-04-25 13h05.19.083769 +0200,
./images_beh/Sphere_CCW-1.5_BG-grey_stim-white.png,0,87,87,87,88.8918768580188,,,,,,,,,,88.84424994303845,88.8918768580188,88.8918768580188,89.62668715103064,89.63524697202956,89.84314754704246,None,0,,,,,sub-sepehr,ses-main-stim-z-1,run-1,grey,2024-04-25_13h04.20.182,VDT,2023.2.3,120.37708649106482,2024-04-25 13h05.19.083769 +0200,
./images_beh/Sphere_CW-1.5_BG-grey_stim-white.png,0,88,88,88,89.89011346903862,,,,,,,,,,89.84388688701438,89.89011346903862,89.89011346903862,90.62578382500215,90.6349695000099,90.79243646503892,None,0,,,,,sub-sepehr,ses-main-stim-z-1,run-1,grey,2024-04-25_13h04.20.182,VDT,2023.2.3,120.37708649106482,2024-04-25 13h05.19.083769 +0200,
./images_beh/Sphere_CW-1.5_BG-grey_stim-white.png,0,89,89,89,90.8366768360138,,,,,,,,,,90.7931757280021,90.87538890104042,90.87538890104042,91.62460644199746,91.61774543405045,91.85219818900805,None,0,,,,,sub-sepehr,ses-main-stim-z-1,run-1,grey,2024-04-25_13h04.20.182,VDT,2023.2.3,120.37708649106482,2024-04-25 13h05.19.083769 +0200,
./images_beh/Sphere_CCW-1.5_BG-grey_stim-white.png,0,90,90,90,91.89997642103117,,,,,,,,,,91.85332517704228,91.89997642103117,91.89997642103117,92.63653822400374,92.65356215601787,92.80187790701166,None,0,,,,,sub-sepehr,ses-main-stim-z-1,run-1,grey,2024-04-25_13h04.20.182,VDT,2023.2.3,120.37708649106482,2024-04-25 13h05.19.083769 +0200,
./images_beh/Sphere_CCW-1.5_BG-grey_stim-white.png,0,91,91,91,92.8495641000336,,,,,,,,,,92.80299788003322,92.87336444004904,92.87336444004904,93.63400960102445,93.61970924102934,93.80078627803596,None,0,,,,,sub-sepehr,ses-main-stim-z-1,run-1,grey,2024-04-25_13h04.20.182,VDT,2023.2.3,120.37708649106482,2024-04-25 13h05.19.083769 +0200,
./images_beh/Sphere_CCW-1.5_BG-grey_stim-white.png,0,92,92,92,93.84204827004578,,,,,,,,,,93.80185952904867,93.87230401101988,93.87230401101988,94.62443190801423,94.61674289702205,94.81747389200609,None,0,,,,,sub-sepehr,ses-main-stim-z-1,run-1,grey,2024-04-25_13h04.20.182,VDT,2023.2.3,120.37708649106482,2024-04-25 13h05.19.083769 +0200,
./images_beh/Sphere_Ref_BG-grey_stim-white.png,0,93,93,93,94.86432823102223,,,,,,,,,,94.81848029000685,94.86999263701728,94.86999263701728,95.62173087702831,95.61568179301685,95.84992796904407,['space'],0,0.5481186839751899,None,,,sub-sepehr,ses-main-stim-z-1,run-1,grey,2024-04-25_13h04.20.182,VDT,2023.2.3,120.37708649106482,2024-04-25 13h05.19.083769 +0200,
./images_beh/Sphere_CW-1.5_BG-grey_stim-white.png,0,94,94,94,95.89817731501535,,,,,,,,,,95.8513009060407,95.89817731501535,95.89817731501535,96.63270355504937,96.63982722000219,96.83260790602071,None,0,,,,,sub-sepehr,ses-main-stim-z-1,run-1,grey,2024-04-25_13h04.20.182,VDT,2023.2.3,120.37708649106482,2024-04-25 13h05.19.083769 +0200,
./images_beh/Sphere_CCW-1.5_BG-grey_stim-white.png,0,95,95,95,96.87661428702995,,,,,,,,,,96.8336608960526,96.87661428702995,96.87661428702995,97.6214389030356,97.6214389030356,97.83313688100316,None,0,,,,,sub-sepehr,ses-main-stim-z-1,run-1,grey,2024-04-25_13h04.20.182,VDT,2023.2.3,120.37708649106482,2024-04-25 13h05.19.083769 +0200,
./images_beh/Sphere_Ref_BG-grey_stim-white.png,0,96,96,96,97.88001857604831,,,,,,,,,,97.83387539704563,97.88001857604831,97.88001857604831,98.62010033399565,98.62010033399565,98.82282576902071,['space'],0,0.5982639649882913,None,,,sub-sepehr,ses-main-stim-z-1,run-1,grey,2024-04-25_13h04.20.182,VDT,2023.2.3,120.37708649106482,2024-04-25 13h05.19.083769 +0200,
./images_beh/Sphere_CCW-1.5_BG-grey_stim-white.png,0,97,97,97,98.87120111699915,,,,,,,,,,98.82380728202406,98.88067498902092,98.88067498902092,99.63045287999557,99.63045287999557,99.86687290802365,None,0,,,,,sub-sepehr,ses-main-stim-z-1,run-1,grey,2024-04-25_13h04.20.182,VDT,2023.2.3,120.37708649106482,2024-04-25 13h05.19.083769 +0200,
./images_beh/Sphere_CW-1.5_BG-grey_stim-white.png,0,98,98,98,99.9142730430467,,,,,,,,,,99.86760689603398,99.9142730430467,99.9142730430467,100.63311633403646,100.66357329703169,100.83726798504358,None,0,,,,,sub-sepehr,ses-main-stim-z-1,run-1,grey,2024-04-25_13h04.20.182,VDT,2023.2.3,120.37708649106482,2024-04-25 13h05.19.083769 +0200,
./images_beh/Sphere_CW-1.5_BG-grey_stim-white.png,0,99,99,99,100.88474638899788,,,,,,,,,,100.83799558604369,100.88474638899788,100.88474638899788,101.62986236903816,101.62986236903816,101.84965050203027,None,0,,,,,sub-sepehr,ses-main-stim-z-1,run-1,grey,2024-04-25_13h04.20.182,VDT,2023.2.3,120.37708649106482,2024-04-25 13h05.19.083769 +0200,
./images_beh/Sphere_Ref_BG-grey_stim-white.png,0,100,100,100,101.89911518903682,,,,,,,,,,101.85039657604648,101.89911518903682,101.89911518903682,102.62914027000079,102.64561792404857,102.819822260004,None,0,,,,,sub-sepehr,ses-main-stim-z-1,run-1,grey,2024-04-25_13h04.20.182,VDT,2023.2.3,120.37708649106482,2024-04-25 13h05.19.083769 +0200,
./images_beh/Sphere_CW-1.5_BG-grey_stim-white.png,0,101,101,101,102.86820598004851,,,,,,,,,,102.82054616103414,102.87853267404716,102.87853267404716,103.63105041102972,103.63105041102972,103.81249708303949,None,0,,,,,sub-sepehr,ses-main-stim-z-1,run-1,grey,2024-04-25_13h04.20.182,VDT,2023.2.3,120.37708649106482,2024-04-25 13h05.19.083769 +0200,
./images_beh/Sphere_CCW-1.5_BG-grey_stim-white.png,0,102,102,102,103.85699827701319,,,,,,,,,,103.81350354704773,103.8782213840168,103.8782213840168,104.62834952701814,104.62834952701814,104.81852259102743,None,0,,,,,sub-sepehr,ses-main-stim-z-1,run-1,grey,2024-04-25_13h04.20.182,VDT,2023.2.3,120.37708649106482,2024-04-25 13h05.19.083769 +0200,
./images_beh/Sphere_CW-1.5_BG-grey_stim-white.png,0,103,103,103,104.86344128102064,,,,,,,,,,104.81926579400897,104.88429930299753,104.88429930299753,105.62704092403874,105.62704092403874,105.82806884602178,['space'],0,0.6177012440166436,None,,,sub-sepehr,ses-main-stim-z-1,run-1,grey,2024-04-25_13h04.20.182,VDT,2023.2.3,120.37708649106482,2024-04-25 13h05.19.083769 +0200,
./images_beh/Sphere_Ref_BG-grey_stim-white.png,0,104,104,104,105.87681609403808,,,,,,,,,,105.82931684702635,105.88256115600234,105.88256115600234,106.62698136002291,106.62698136002291,106.82768745103385,None,0,,,,,sub-sepehr,ses-main-stim-z-1,run-1,grey,2024-04-25_13h04.20.182,VDT,2023.2.3,120.37708649106482,2024-04-25 13h05.19.083769 +0200,
./images_beh/Sphere_CW-1.5_BG-grey_stim-white.png,0,105,105,105,106.87597725004889,,,,,,,,,,106.82891356002074,106.88149885000894,106.88149885000894,107.6344700930058,107.6344700930058,107.84396427200409,None,0,,,,,sub-sepehr,ses-main-stim-z-1,run-1,grey,2024-04-25_13h04.20.182,VDT,2023.2.3,120.37708649106482,2024-04-25 13h05.19.083769 +0200,
./images_beh/Sphere_CCW-1.5_BG-grey_stim-white.png,0,106,106,106,107.8923238569987,,,,,,,,,,107.84515478601679,107.8923238569987,107.8923238569987,108.62631213804707,108.63346611900488,108.86323987104697,None,0,,,,,sub-sepehr,ses-main-stim-z-1,run-1,grey,2024-04-25_13h04.20.182,VDT,2023.2.3,120.37708649106482,2024-04-25 13h05.19.083769 +0200,
./images_beh/Sphere_CW-1.5_BG-grey_stim-white.png,0,107,107,107,108.91330774599919,,,,,,,,,,108.86397224501707,108.91330774599919,108.91330774599919,109.63415908400202,109.6589984150487,109.82876830804162,None,0,,,,,sub-sepehr,ses-main-stim-z-1,run-1,grey,2024-04-25_13h04.20.182,VDT,2023.2.3,120.37708649106482,2024-04-25 13h05.19.083769 +0200,
./images_beh/Sphere_CW-1.5_BG-grey_stim-white.png,0,108,108,108,109.8772949569975,,,,,,,,,,109.8295034840121,109.89228176901815,109.89228176901815,110.62531657499494,110.63216728600673,110.84263657301199,None,0,,,,,sub-sepehr,ses-main-stim-z-1,run-1,grey,2024-04-25_13h04.20.182,VDT,2023.2.3,120.37708649106482,2024-04-25 13h05.19.083769 +0200,
./images_beh/Sphere_CW-1.5_BG-grey_stim-white.png,0,109,109,109,110.88922100304626,,,,,,,,,,110.8434194040019,110.88922100304626,110.88922100304626,111.62417089601513,111.6299453380052,111.86135473899776,['space'],0,0.5483174450346269,None,,,sub-sepehr,ses-main-stim-z-1,run-1,grey,2024-04-25_13h04.20.182,VDT,2023.2.3,120.37708649106482,2024-04-25 13h05.19.083769 +0200,
./images_beh/Sphere_CCW-1.5_BG-grey_stim-white.png,0,110,110,110,111.90999862900935,,,,,,,,,,111.86230472900206,111.90999862900935,111.90999862900935,112.64043591404334,112.65699333802331,112.82557529205224,None,0,,,,,sub-sepehr,ses-main-stim-z-1,run-1,grey,2024-04-25_13h04.20.182,VDT,2023.2.3,120.37708649106482,2024-04-25 13h05.19.083769 +0200,
./images_beh/Sphere_Ref_BG-grey_stim-white.png,0,111,111,111,112.8730375720188,,,,,,,,,,112.82634978502756,112.87984112900449,112.87984112900449,113.62329747504555,113.62329747504555,113.79724216001341,None,0,,,,,sub-sepehr,ses-main-stim-z-1,run-1,grey,2024-04-25_13h04.20.182,VDT,2023.2.3,120.37708649106482,2024-04-25 13h05.19.083769 +0200,
./images_beh/Sphere_CW-1.5_BG-grey_stim-white.png,0,112,112,112,113.84061253303662,,,,,,,,,,113.79799240204738,113.87911150901346,113.87911150901346,114.62817379605258,114.62249264999991,114.84067455102922,None,0,,,,,sub-sepehr,ses-main-stim-z-1,run-1,grey,2024-04-25_13h04.20.182,VDT,2023.2.3,120.37708649106482,2024-04-25 13h05.19.083769 +0200,
./images_beh/Sphere_CW-1.5_BG-grey_stim-white.png,0,113,113,113,114.89006207103375,,,,,,,,,,114.84181895700749,114.89006207103375,114.89006207103375,115.6299679360236,115.63864862901391,115.84640235302504,None,0,,,,,sub-sepehr,ses-main-stim-z-1,run-1,grey,2024-04-25_13h04.20.182,VDT,2023.2.3,120.37708649106482,2024-04-25 13h05.19.083769 +0200,
./images_beh/Sphere_Ref_BG-grey_stim-white.png,0,114,114,114,115.89239108702168,,,,,,,,,,115.84711526200408,115.89239108702168,115.89239108702168,116.62975081399782,116.6383188740001,116.85603547404753,None,0,,,,,sub-sepehr,ses-main-stim-z-1,run-1,grey,2024-04-25_13h04.20.182,VDT,2023.2.3,120.37708649106482,2024-04-25 13h05.19.083769 +0200,
./images_beh/Sphere_CW-1.5_BG-grey_stim-white.png,0,115,115,115,116.90569647605298,,,,,,,,,,116.85727272799704,116.90569647605298,116.90569647605298,117.62880054401467,117.65429234103067,117.82308315101545,None,0,,,,,sub-sepehr,ses-main-stim-z-1,run-1,grey,2024-04-25_13h04.20.182,VDT,2023.2.3,120.37708649106482,2024-04-25 13h05.19.083769 +0200,
./images_beh/Sphere_CW-1.5_BG-grey_stim-white.png,0,116,116,116,117.86848865903448,,,,,,,,,,117.82409540005028,117.87342971004546,117.87342971004546,118.6276667000493,118.62091600900749,118.80526993202511,None,0,,,,,sub-sepehr,ses-main-stim-z-1,run-1,grey,2024-04-25_13h04.20.182,VDT,2023.2.3,120.37708649106482,2024-04-25 13h05.19.083769 +0200,
./images_beh/Sphere_CCW-1.5_BG-grey_stim-white.png,0,117,117,117,118.85133393399883,,,,,,,,,,118.80609038402326,118.87619636702584,118.87619636702584,119.62726887903409,119.62050335603999,119.83995986304944,None,0,,,,,sub-sepehr,ses-main-stim-z-1,run-1,grey,2024-04-25_13h04.20.182,VDT,2023.2.3,120.37708649106482,2024-04-25 13h05.19.083769 +0200,
./images_beh/Sphere_CCW-1.5_BG-grey_stim-white.png,0,118,118,118,119.88725258799968,,,,,,,,,,119.84068757802015,119.88725258799968,119.88725258799968,120.62605037901085,120.62605037901085,120.83740883204155,None,0,,,,,sub-sepehr,ses-main-stim-z-1,run-1,grey,2024-04-25_13h04.20.182,VDT,2023.2.3,120.37708649106482,2024-04-25 13h05.19.083769 +0200,
./images_beh/Sphere_Ref_BG-grey_stim-white.png,0,119,119,119,120.88681628799532,,,,,,,,,,120.83873204601696,120.88681628799532,120.88681628799532,121.62499408400618,121.63569798105163,121.78655133902794,['space'],0,0.5591854249942116,None,,,sub-sepehr,ses-main-stim-z-1,run-1,grey,2024-04-25_13h04.20.182,VDT,2023.2.3,120.37708649106482,2024-04-25 13h05.19.083769 +0200,
./images_beh/Sphere_CCW-1.5_BG-grey_stim-white.png,0,120,120,120,121.83070857502753,,,,,,,,,,121.7879275540472,121.87487810401944,121.87487810401944,122.62526158703258,122.61866795702372,122.78627657401375,None,0,,,,,sub-sepehr,ses-main-stim-z-1,run-1,grey,2024-04-25_13h04.20.182,VDT,2023.2.3,120.37708649106482,2024-04-25 13h05.19.083769 +0200,
./images_beh/Sphere_CCW-1.5_BG-grey_stim-white.png,0,121,121,121,122.82920871902024,,,,,,,,,,122.78696239902638,122.8744011890376,122.8744011890376,123.62473030202091,123.61795646999963,123.81881603004877,None,0,,,,,sub-sepehr,ses-main-stim-z-1,run-1,grey,2024-04-25_13h04.20.182,VDT,2023.2.3,120.37708649106482,2024-04-25 13h05.19.083769 +0200,
./images_beh/Sphere_CCW-1.5_BG-grey_stim-white.png,0,122,122,122,123.86462523700902,,,,,,,,,,123.82003235403681,123.88460340804886,123.88460340804886,124.62380839901743,124.62380839901743,124.82531337800901,None,0,,,,,sub-sepehr,ses-main-stim-z-1,run-1,grey,2024-04-25_13h04.20.182,VDT,2023.2.3,120.37708649106482,2024-04-25 13h05.19.083769 +0200,
./images_beh/Sphere_Ref_BG-grey_stim-white.png,0,123,123,123,124.87515706202248,,,,,,,,,,124.82603281905176,124.8839887730428,124.8839887730428,125.62351214402588,125.62351214402588,125.81781667802716,None,0,,,,,sub-sepehr,ses-main-stim-z-1,run-1,grey,2024-04-25_13h04.20.182,VDT,2023.2.3,120.37708649106482,2024-04-25 13h05.19.083769 +0200,
./images_beh/Sphere_CW-1.5_BG-grey_stim-white.png,0,124,124,124,125.86319670104422,,,,,,,,,,125.81903727899771,125.87293683801545,125.87293683801545,126.62380851601483,126.61671295802807,126.85750106803607,['space'],0,0.6531343199894764,None,,,sub-sepehr,ses-main-stim-z-1,run-1,grey,2024-04-25_13h04.20.182,VDT,2023.2.3,120.37708649106482,2024-04-25 13h05.19.083769 +0200,
./images_beh/Sphere_CCW-1.5_BG-grey_stim-white.png,0,125,125,125,126.90619059203891,,,,,,,,,,126.85845923004672,126.90619059203891,126.90619059203891,127.62270227604313,127.64938555203844,127.80024933803361,None,0,,,,,sub-sepehr,ses-main-stim-z-1,run-1,grey,2024-04-25_13h04.20.182,VDT,2023.2.3,120.37708649106482,2024-04-25 13h05.19.083769 +0200,
./images_beh/Sphere_CCW-1.5_BG-grey_stim-white.png,0,126,126,126,127.84506610804237,,,,,,,,,,127.80138715804787,127.87160413700622,127.87160413700622,128.62352754204767,128.61642802803544,128.81650940701365,None,0,,,,,sub-sepehr,ses-main-stim-z-1,run-1,grey,2024-04-25_13h04.20.182,VDT,2023.2.3,120.37708649106482,2024-04-25 13h05.19.083769 +0200,
./images_beh/Sphere_CCW-1.5_BG-grey_stim-white.png,0,127,127,127,128.86086443503154,,,,,,,,,,128.81758697499754,128.87038172100438,128.87038172100438,129.62173896899913,129.61507425300078,129.83205037604785,None,0,,,,,sub-sepehr,ses-main-stim-z-1,run-1,grey,2024-04-25_13h04.20.182,VDT,2023.2.3,120.37708649106482,2024-04-25 13h05.19.083769 +0200,
./images_beh/Sphere_CW-1.5_BG-grey_stim-white.png,0,128,128,128,129.8689524520305,,,,,,,,,,129.8327602840145,129.8689524520305,129.8689524520305,130.62118117400678,130.6144744150224,130.7996610790142,None,0,,,,,sub-sepehr,ses-main-stim-z-1,run-1,grey,2024-04-25_13h04.20.182,VDT,2023.2.3,120.37708649106482,2024-04-25 13h05.19.083769 +0200,
./images_beh/Sphere_CW-1.5_BG-grey_stim-white.png,0,129,129,129,130.84864338400075,,,,,,,,,,130.80044559005182,130.8707013160456,130.8707013160456,131.6208883880172,131.61391364003066,131.7984741620021,None,0,,,,,sub-sepehr,ses-main-stim-z-1,run-1,grey,2024-04-25_13h04.20.182,VDT,2023.2.3,120.37708649106482,2024-04-25 13h05.19.083769 +0200,
./images_beh/Sphere_Ref_BG-grey_stim-white.png,0,130,130,130,131.8412869060412,,,,,,,,,,131.79911742103286,131.86921033699764,131.86921033699764,132.63027407502523,132.61355024203658,132.868653105048,['space'],0,0.5368637340143323,None,132.868074049009,132.86314801505068,sub-sepehr,ses-main-stim-z-1,run-1,grey,2024-04-25_13h04.20.182,VDT,2023.2.3,120.37708649106482,2024-04-25 13h05.19.083769 +0200,
./images_beh/Sphere_CCW-1.5_BG-grey_stim-white.png,0,131,131,131,132.90324372600298,,,,,,,,,,132.86907566303853,132.90324372600298,132.90324372600298,133.63576707005268,133.6461193950381,133.8465088630328,None,0,,,,,sub-sepehr,ses-main-stim-z-1,run-1,grey,2024-04-25_13h04.20.182,VDT,2023.2.3,120.37708649106482,2024-04-25 13h05.19.083769 +0200,
./images_beh/Sphere_CW-1.5_BG-grey_stim-white.png,0,132,132,132,133.88113632099703,,,,,,,,,,133.84679877501912,133.89606059005018,133.89606059005018,134.62921086803544,134.63521307799965,134.8292051590397,None,0,,,,,sub-sepehr,ses-main-stim-z-1,run-1,grey,2024-04-25_13h04.20.182,VDT,2023.2.3,120.37708649106482,2024-04-25 13h05.19.083769 +0200,
./images_beh/Sphere_Ref_BG-grey_stim-white.png,0,133,133,133,134.862498891016,,,,,,,,,,134.82967958500376,134.87863732100232,134.87863732100232,135.62852605100488,135.61565417604288,135.8120251300279,None,0,,,,,sub-sepehr,ses-main-stim-z-1,run-1,grey,2024-04-25_13h04.20.182,VDT,2023.2.3,120.37708649106482,2024-04-25 13h05.19.083769 +0200,
./images_beh/Sphere_CCW-1.5_BG-grey_stim-white.png,0,134,134,134,135.84502628503833,,,,,,,,,,135.8125665850239,135.87813828402432,135.87813828402432,136.62813902104972,136.6172422610107,136.80252934299642,None,0,,,,,sub-sepehr,ses-main-stim-z-1,run-1,grey,2024-04-25_13h04.20.182,VDT,2023.2.3,120.37708649106482,2024-04-25 13h05.19.083769 +0200,
./images_beh/Sphere_CCW-1.5_BG-grey_stim-white.png,0,135,135,135,136.84815561003052,,,,,,,,,,136.80325974803418,136.87802322104108,136.87802322104108,137.63015482900664,137.6163065500441,137.83067139901686,None,0,,,,,sub-sepehr,ses-main-stim-z-1,run-1,grey,2024-04-25_13h04.20.182,VDT,2023.2.3,120.37708649106482,2024-04-25 13h05.19.083769 +0200,
./images_beh/Sphere_CCW-1.5_BG-grey_stim-white.png,0,136,136,136,137.87824373302283,,,,,,,,,,137.8313998390222,137.88359918800415,137.88359918800415,138.627531584003,138.627531584003,138.8787928650272,None,0,,,138.8664165630471,138.87765080301324,sub-sepehr,ses-main-stim-z-1,run-1,grey,2024-04-25_13h04.20.182,VDT,2023.2.3,120.37708649106482,2024-04-25 13h05.19.083769 +0200,
./images_beh/Sphere_CW-1.5_BG-grey_stim-white.png,0,137,137,137,138.9276639870368,,,,,,,,,,138.87953084200853,138.9276639870368,138.9276639870368,139.62925714399898,139.66703036404215,139.81816061702557,None,0,,,,,sub-sepehr,ses-main-stim-z-1,run-1,grey,2024-04-25_13h04.20.182,VDT,2023.2.3,120.37708649106482,2024-04-25 13h05.19.083769 +0200,
./images_beh/Sphere_Ref_BG-grey_stim-white.png,0,138,138,138,139.86645222903462,,,,,,,,,,139.8191228969954,139.87682961602695,139.87682961602695,140.6257730530342,140.61456348805223,140.83128522505285,['space'],0,0.5523976670228876,None,,,sub-sepehr,ses-main-stim-z-1,run-1,grey,2024-04-25_13h04.20.182,VDT,2023.2.3,120.37708649106482,2024-04-25 13h05.19.083769 +0200,
./images_beh/Sphere_CW-1.5_BG-grey_stim-white.png,0,139,139,139,140.86408326600213,,,,,,,,,,140.83177614101442,140.875244253024,140.875244253024,141.62849006103352,141.6142918789992,141.87673234404065,None,0,,,141.87576611200348,141.86441767204087,sub-sepehr,ses-main-stim-z-1,run-1,grey,2024-04-25_13h04.20.182,VDT,2023.2.3,120.37708649106482,2024-04-25 13h05.19.083769 +0200,
./images_beh/Sphere_CW-1.5_BG-grey_stim-white.png,0,140,140,140,141.92335356102558,,,,,,,,,,141.87791537301382,141.92335356102558,141.92335356102558,142.6251734160469,142.66515451902524,142.80969015700975,None,0,,,,,sub-sepehr,ses-main-stim-z-1,run-1,grey,2024-04-25_13h04.20.182,VDT,2023.2.3,120.37708649106482,2024-04-25 13h05.19.083769 +0200,
./images_beh/Sphere_Ref_BG-grey_stim-white.png,0,141,141,141,142.85471167700598,,,,,,,,,,142.81036264100112,142.88034130603774,142.88034130603774,143.6249103700393,143.6249103700393,143.84461668500444,None,0,,,,,sub-sepehr,ses-main-stim-z-1,run-1,grey,2024-04-25_13h04.20.182,VDT,2023.2.3,120.37708649106482,2024-04-25 13h05.19.083769 +0200,
./images_beh/Sphere_CW-1.5_BG-grey_stim-white.png,0,142,142,142,143.89721297600772,,,,,,,,,,143.8453387960326,143.89721297600772,143.89721297600772,144.62431678699795,144.6407190800528,144.8321528560482,None,0,,,,,sub-sepehr,ses-main-stim-z-1,run-1,grey,2024-04-25_13h04.20.182,VDT,2023.2.3,120.37708649106482,2024-04-25 13h05.19.083769 +0200,
./images_beh/Sphere_CCW-1.5_BG-grey_stim-white.png,0,143,143,143,144.87792911601719,,,,,,,,,,144.83273616601946,144.87792911601719,144.87792911601719,145.62945992004825,145.62346659303876,145.8435875440482,None,0,,,,,sub-sepehr,ses-main-stim-z-1,run-1,grey,2024-04-25_13h04.20.182,VDT,2023.2.3,120.37708649106482,2024-04-25 13h05.19.083769 +0200,
./images_beh/Sphere_CW-1.5_BG-grey_stim-white.png,0,144,144,144,145.89131769404048,,,,,,,,,,145.84431802202016,145.89131769404048,145.89131769404048,146.63135633204365,146.63995629700366,146.84096215304453,None,0,,,,,sub-sepehr,ses-main-stim-z-1,run-1,grey,2024-04-25_13h04.20.182,VDT,2023.2.3,120.37708649106482,2024-04-25 13h05.19.083769 +0200,
./images_beh/Sphere_CW-1.5_BG-grey_stim-white.png,0,145,145,145,146.88655094901333,,,,,,,,,,146.84174082701793,146.88655094901333,146.88655094901333,147.62989736004965,147.62989736004965,147.82377921201987,None,0,,,,,sub-sepehr,ses-main-stim-z-1,run-1,grey,2024-04-25_13h04.20.182,VDT,2023.2.3,120.37708649106482,2024-04-25 13h05.19.083769 +0200,
./images_beh/Sphere_Ref_BG-grey_stim-white.png,0,146,146,146,147.869570777053,,,,,,,,,,147.82457494502887,147.8897417850094,147.8897417850094,148.62785198603524,148.63847177504795,148.86212277802406,['space'],0,0.6117891119793057,None,,,sub-sepehr,ses-main-stim-z-1,run-1,grey,2024-04-25_13h04.20.182,VDT,2023.2.3,120.37708649106482,2024-04-25 13h05.19.083769 +0200,
./images_beh/Sphere_CCW-1.5_BG-grey_stim-white.png,0,147,147,147,148.9082687930204,,,,,,,,,,148.86289776104968,148.9082687930204,148.9082687930204,149.62908726604655,149.65508653101278,149.79620245203841,None,0,,,,,sub-sepehr,ses-main-stim-z-1,run-1,grey,2024-04-25_13h04.20.182,VDT,2023.2.3,120.37708649106482,2024-04-25 13h05.19.083769 +0200,
./images_beh/Sphere_CW-1.5_BG-grey_stim-white.png,0,148,148,148,149.8427885430283,,,,,,,,,,149.79692214902025,149.8775291040074,149.8775291040074,150.62763430102495,150.62118802801706,150.8226561130141,None,0,,,,,sub-sepehr,ses-main-stim-z-1,run-1,grey,2024-04-25_13h04.20.182,VDT,2023.2.3,120.37708649106482,2024-04-25 13h05.19.083769 +0200,
./images_beh/Sphere_Ref_BG-grey_stim-white.png,0,149,149,149,150.86891272303183,,,,,,,,,,150.8234457860235,150.87480245303595,150.87480245303595,151.6276223610039,151.62071254500188,151.83836946601514,None,0,,,,,sub-sepehr,ses-main-stim-z-1,run-1,grey,2024-04-25_13h04.20.182,VDT,2023.2.3,120.37708649106482,2024-04-25 13h05.19.083769 +0200,
./images_beh/Sphere_CW-1.5_BG-grey_stim-white.png,0,150,150,150,151.88755549205234,,,,,,,,,,151.83952699101064,151.88755549205234,151.88755549205234,152.6270156300161,152.6270156300161,152.87118050002027,None,0,,,152.8699557930231,,sub-sepehr,ses-main-stim-z-1,run-1,grey,2024-04-25_13h04.20.182,VDT,2023.2.3,120.37708649106482,2024-04-25 13h05.19.083769 +0200,
./images_beh/Sphere_CCW-1.5_BG-grey_stim-white.png,0,151,151,151,152.91815493104514,,,,,,,,,,152.8719214410521,152.91815493104514,152.91815493104514,153.62633264804026,153.65883538604248,153.820493767038,None,0,,,,,sub-sepehr,ses-main-stim-z-1,run-1,grey,2024-04-25_13h04.20.182,VDT,2023.2.3,120.37708649106482,2024-04-25 13h05.19.083769 +0200,
./images_beh/Sphere_CW-1.5_BG-grey_stim-white.png,0,152,152,152,153.86714495305205,,,,,,,,,,153.82179719401756,153.87270270701265,153.87270270701265,154.6245245950413,154.6187412349973,154.83689328900073,['space'],0,0.6448513450450264,None,,,sub-sepehr,ses-main-stim-z-1,run-1,grey,2024-04-25_13h04.20.182,VDT,2023.2.3,120.37708649106482,2024-04-25 13h05.19.083769 +0200,
./images_beh/Sphere_CCW-1.5_BG-grey_stim-white.png,0,153,153,153,154.8855221940321,,,,,,,,,,154.8378789370181,154.8855221940321,154.8855221940321,155.62601128703682,155.62601128703682,155.82531148701673,None,0,,,,,sub-sepehr,ses-main-stim-z-1,run-1,grey,2024-04-25_13h04.20.182,VDT,2023.2.3,120.37708649106482,2024-04-25 13h05.19.083769 +0200,
./images_beh/Sphere_CCW-1.5_BG-grey_stim-white.png,0,154,154,154,155.872305410041,,,,,,,,,,155.82623707002494,155.88482410099823,155.88482410099823,156.62487355904886,156.62487355904886,156.81914936000248,None,0,,,,,sub-sepehr,ses-main-stim-z-1,run-1,grey,2024-04-25_13h04.20.182,VDT,2023.2.3,120.37708649106482,2024-04-25 13h05.19.083769 +0200,
./images_beh/Sphere_Ref_BG-grey_stim-white.png,0,155,155,155,156.8646455220296,,,,,,,,,,156.8199478490278,156.88460172200575,156.88460172200575,157.62498442904325,157.62498442904325,157.82492534600897,None,0,,,,,sub-sepehr,ses-main-stim-z-1,run-1,grey,2024-04-25_13h04.20.182,VDT,2023.2.3,120.37708649106482,2024-04-25 13h05.19.083769 +0200,
./images_beh/Sphere_CCW-1.5_BG-grey_stim-white.png,0,156,156,156,157.87207026203396,,,,,,,,,,157.8256692950381,157.88369667402003,157.88369667402003,158.62417791300686,158.62417791300686,158.83455954503734,None,0,,,,,sub-sepehr,ses-main-stim-z-1,run-1,grey,2024-04-25_13h04.20.182,VDT,2023.2.3,120.37708649106482,2024-04-25 13h05.19.083769 +0200,
./images_beh/Sphere_CCW-1.5_BG-grey_stim-white.png,0,157,157,157,158.88080789899686,,,,,,,,,,158.8354573380202,158.88080789899686,158.88080789899686,159.62446738703875,159.62446738703875,159.78378908900777,None,0,,,,,sub-sepehr,ses-main-stim-z-1,run-1,grey,2024-04-25_13h04.20.182,VDT,2023.2.3,120.37708649106482,2024-04-25 13h05.19.083769 +0200,
./images_beh/Sphere_CCW-1.5_BG-grey_stim-white.png,0,158,158,158,159.81960605899803,,,,,,,,,,159.78421320900088,159.8741072670091,159.8741072670091,160.63583200302674,160.63583200302674,160.81761088600615,None,0,,,,,sub-sepehr,ses-main-stim-z-1,run-1,grey,2024-04-25_13h04.20.182,VDT,2023.2.3,120.37708649106482,2024-04-25 13h05.19.083769 +0200,
./images_beh/Sphere_Ref_BG-grey_stim-white.png,0,159,159,159,160.86426899401704,,,,,,,,,,160.8183917760034,160.8697706310195,160.8697706310195,161.6209953619982,161.61508344102185,161.79846022900892,['space'],0,0.7039803210063837,None,,,sub-sepehr,ses-main-stim-z-1,run-1,grey,2024-04-25_13h04.20.182,VDT,2023.2.3,120.37708649106482,2024-04-25 13h05.19.083769 +0200,
./images_beh/Sphere_CW-1.5_BG-grey_stim-white.png,0,160,160,160,161.83173248602543,,,,,,,,,,161.79931231203955,161.87023719004355,161.87023719004355,162.6221690880484,162.61530701001175,162.9022567050415,None,0,,,162.86781409801915,162.86781409801915,sub-sepehr,ses-main-stim-z-1,run-1,grey,2024-04-25_13h04.20.182,VDT,2023.2.3,120.37708649106482,2024-04-25 13h05.19.083769 +0200,
./images_beh/Sphere_CW-1.5_BG-grey_stim-white.png,0,161,161,161,162.95251203601947,,,,,,,,,,162.90297678904608,162.95251203601947,162.95251203601947,163.62294346804265,163.70022493303986,163.8345646210364,None,0,,,,,sub-sepehr,ses-main-stim-z-1,run-1,grey,2024-04-25_13h04.20.182,VDT,2023.2.3,120.37708649106482,2024-04-25 13h05.19.083769 +0200,
./images_beh/Sphere_CCW-1.5_BG-grey_stim-white.png,0,162,162,162,163.88238427904435,,,,,,,,,,163.8352966150269,163.88238427904435,163.88238427904435,164.63347440003417,164.63347440003417,164.84907771099824,None,0,,,,,sub-sepehr,ses-main-stim-z-1,run-1,grey,2024-04-25_13h04.20.182,VDT,2023.2.3,120.37708649106482,2024-04-25 13h05.19.083769 +0200,
./images_beh/Sphere_CW-1.5_BG-grey_stim-white.png,0,163,163,163,164.89866128202993,,,,,,,,,,164.84982656000648,164.89866128202993,164.89866128202993,165.6218541880371,165.64671314303996,165.81485761201475,None,0,,,,,sub-sepehr,ses-main-stim-z-1,run-1,grey,2024-04-25_13h04.20.182,VDT,2023.2.3,120.37708649106482,2024-04-25 13h05.19.083769 +0200,
./images_beh/Sphere_Ref_BG-grey_stim-white.png,0,164,164,164,165.86089551402256,,,,,,,,,,165.81563790905057,165.88546808302635,165.88546808302635,166.63266830705106,166.64636606205022,166.78775108302943,['space'],0,0.5047420090413652,None,,,sub-sepehr,ses-main-stim-z-1,run-1,grey,2024-04-25_13h04.20.182,VDT,2023.2.3,120.37708649106482,2024-04-25 13h05.19.083769 +0200,
./images_beh/Sphere_CCW-1.5_BG-grey_stim-white.png,0,165,165,165,166.83548309101025,,,,,,,,,,166.7887000150513,166.87962270900607,166.87962270900607,167.63147060602205,167.61820589203853,167.84714239800815,None,0,,,,,sub-sepehr,ses-main-stim-z-1,run-1,grey,2024-04-25_13h04.20.182,VDT,2023.2.3,120.37708649106482,2024-04-25 13h05.19.083769 +0200,
./images_beh/Sphere_CW-1.5_BG-grey_stim-white.png,0,166,166,166,167.8948730980046,,,,,,,,,,167.8483520949958,167.8948730980046,167.8948730980046,168.62866257602582,168.63572150102118,168.79675252304878,None,0,,,,,sub-sepehr,ses-main-stim-z-1,run-1,grey,2024-04-25_13h04.20.182,VDT,2023.2.3,120.37708649106482,2024-04-25 13h05.19.083769 +0200,
./images_beh/Sphere_CW-1.5_BG-grey_stim-white.png,0,167,167,167,168.84576070599724,,,,,,,,,,168.7978554420406,168.87860892200842,168.87860892200842,169.63120595604414,169.617939511023,169.8684705030173,None,0,,,,169.86771006102208,sub-sepehr,ses-main-stim-z-1,run-1,grey,2024-04-25_13h04.20.182,VDT,2023.2.3,120.37708649106482,2024-04-25 13h05.19.083769 +0200,
./images_beh/Sphere_Ref_BG-grey_stim-white.png,0,168,168,168,169.9157807980082,,,,,,,,,,169.86929325101664,169.9157807980082,169.9157807980082,170.62707597605186,170.66087690001586,170.82794461300364,['space'],0,0.6034175740205683,None,,,sub-sepehr,ses-main-stim-z-1,run-1,grey,2024-04-25_13h04.20.182,VDT,2023.2.3,120.37708649106482,2024-04-25 13h05.19.083769 +0200,
./images_beh/Sphere_CW-1.5_BG-grey_stim-white.png,0,169,169,169,170.87338039604947,,,,,,,,,,170.8291377730202,170.87824874202488,170.87824874202488,171.63526103901677,171.62738346902188,171.8127191940439,None,0,,,,,sub-sepehr,ses-main-stim-z-1,run-1,grey,2024-04-25_13h04.20.182,VDT,2023.2.3,120.37708649106482,2024-04-25 13h05.19.083769 +0200,
./images_beh/Sphere_CW-1.5_BG-grey_stim-white.png,0,170,170,170,171.86125339200953,,,,,,,,,,171.81348840502324,171.87738407001598,171.87738407001598,172.62689819704974,172.61582649103366,172.82967628201004,None,0,,,,,sub-sepehr,ses-main-stim-z-1,run-1,grey,2024-04-25_13h04.20.182,VDT,2023.2.3,120.37708649106482,2024-04-25 13h05.19.083769 +0200,
./images_beh/Sphere_CCW-1.5_BG-grey_stim-white.png,0,171,171,171,172.8776510170428,,,,,,,,,,172.8304033530294,172.893275096023,172.893275096023,173.63406415702775,173.63406415702775,173.7998414040194,None,0,,,,,sub-sepehr,ses-main-stim-z-1,run-1,grey,2024-04-25_13h04.20.182,VDT,2023.2.3,120.37708649106482,2024-04-25 13h05.19.083769 +0200,
./images_beh/Sphere_CCW-1.5_BG-grey_stim-white.png,0,172,172,172,173.8406874180073,,,,,,,,,,173.80037482600892,173.87607741402462,173.87607741402462,174.64240496401908,174.62825397402048,174.79376624902943,None,0,,,,,sub-sepehr,ses-main-stim-z-1,run-1,grey,2024-04-25_13h04.20.182,VDT,2023.2.3,120.37708649106482,2024-04-25 13h05.19.083769 +0200,
./images_beh/Sphere_Ref_BG-grey_stim-white.png,0,173,173,173,174.84086847503204,,,,,,,,,,174.79454109503422,174.88228990399512,174.88228990399512,175.63273497699993,175.63273497699993,175.79299580602674,None,0,,,,,sub-sepehr,ses-main-stim-z-1,run-1,grey,2024-04-25_13h04.20.182,VDT,2023.2.3,120.37708649106482,2024-04-25 13h05.19.083769 +0200,
./images_beh/Sphere_CW-1.5_BG-grey_stim-white.png,0,174,174,174,175.83684555301443,,,,,,,,,,175.79366248002043,175.88166600704426,175.88166600704426,176.64435475401115,176.64435475401115,176.89272368402453,None,0,,,176.89139675104525,176.87758193304762,sub-sepehr,ses-main-stim-z-1,run-1,grey,2024-04-25_13h04.20.182,VDT,2023.2.3,120.37708649106482,2024-04-25 13h05.19.083769 +0200,
./images_beh/Sphere_CCW-1.5_BG-grey_stim-white.png,0,175,175,175,176.94262771500507,,,,,,,,,,176.89352958503878,176.94262771500507,176.94262771500507,177.62414657103363,177.69078755105147,177.80892622302053,['space'],0,0.5995466729509644,None,,,sub-sepehr,ses-main-stim-z-1,run-1,grey,2024-04-25_13h04.20.182,VDT,2023.2.3,120.37708649106482,2024-04-25 13h05.19.083769 +0200,
./images_beh/Sphere_Ref_BG-grey_stim-white.png,0,176,176,176,177.85622706799768,,,,,,,,,,177.8100741620292,177.87928127503255,177.87928127503255,178.62370531400666,178.62370531400666,178.8151440200163,None,0,,,,,sub-sepehr,ses-main-stim-z-1,run-1,grey,2024-04-25_13h04.20.182,VDT,2023.2.3,120.37708649106482,2024-04-25 13h05.19.083769 +0200,
./images_beh/Sphere_CCW-1.5_BG-grey_stim-white.png,0,177,177,177,178.86324670905015,,,,,,,,,,178.8158882970456,178.8799141269992,178.8799141269992,179.63082007603953,179.62326949305134,179.8407660330413,None,0,,,,,sub-sepehr,ses-main-stim-z-1,run-1,grey,2024-04-25_13h04.20.182,VDT,2023.2.3,120.37708649106482,2024-04-25 13h05.19.083769 +0200,
./images_beh/Sphere_CCW-1.5_BG-grey_stim-white.png,0,178,178,178,179.88817153900163,,,,,,,,,,179.84154101205058,179.88817153900163,179.88817153900163,180.62931362900417,180.62931362900417,180.86362571502104,None,0,,,,,sub-sepehr,ses-main-stim-z-1,run-1,grey,2024-04-25_13h04.20.182,VDT,2023.2.3,120.37708649106482,2024-04-25 13h05.19.083769 +0200,
./images_beh/Sphere_CW-1.5_BG-grey_stim-white.png,0,179,179,179,180.91135485004634,,,,,,,,,,180.8644825060037,180.91135485004634,180.91135485004634,181.638975467009,181.65555475000292,181.8556596840499,None,0,,,,,sub-sepehr,ses-main-stim-z-1,run-1,grey,2024-04-25_13h04.20.182,VDT,2023.2.3,120.37708649106482,2024-04-25 13h05.19.083769 +0200,
./images_beh/Sphere_CCW-1.5_BG-grey_stim-white.png,0,180,180,180,181.89448460901622,,,,,,,,,,181.8561169130262,181.89448460901622,181.89448460901622,182.64142711804016,182.65490972902626,182.87450891401386,None,0,,,,,sub-sepehr,ses-main-stim-z-1,run-1,grey,2024-04-25_13h04.20.182,VDT,2023.2.3,120.37708649106482,2024-04-25 13h05.19.083769 +0200,
./images_beh/Sphere_CW-1.5_BG-grey_stim-white.png,0,181,181,181,182.92142256203806,,,,,,,,,,182.87523095303914,182.92142256203806,182.92142256203806,183.62985032203142,183.66120510204928,183.80726598901674,None,0,,,,,sub-sepehr,ses-main-stim-z-1,run-1,grey,2024-04-25_13h04.20.182,VDT,2023.2.3,120.37708649106482,2024-04-25 13h05.19.083769 +0200,
./images_beh/Sphere_CCW-1.5_BG-grey_stim-white.png,0,182,182,182,183.85193936905125,,,,,,,,,,183.80799322703388,183.87698208802612,183.87698208802612,184.62754906201735,184.62040197604802,184.80499594600406,None,0,,,,,sub-sepehr,ses-main-stim-z-1,run-1,grey,2024-04-25_13h04.20.182,VDT,2023.2.3,120.37708649106482,2024-04-25 13h05.19.083769 +0200,
./images_beh/Sphere_CCW-1.5_BG-grey_stim-white.png,0,183,183,183,184.85182163200807,,,,,,,,,,184.80580908001866,184.87647576601012,184.87647576601012,185.62769054999808,185.62769054999808,185.83787698403466,None,0,,,,,sub-sepehr,ses-main-stim-z-1,run-1,grey,2024-04-25_13h04.20.182,VDT,2023.2.3,120.37708649106482,2024-04-25 13h05.19.083769 +0200,
./images_beh/Sphere_Ref_BG-grey_stim-white.png,0,184,184,184,185.88486787700094,,,,,,,,,,185.8385265910183,185.88486787700094,185.88486787700094,186.62594023899874,186.62594023899874,186.85353779402794,['space'],0,0.5294495720299892,None,,,sub-sepehr,ses-main-stim-z-1,run-1,grey,2024-04-25_13h04.20.182,VDT,2023.2.3,120.37708649106482,2024-04-25 13h05.19.083769 +0200,
./images_beh/Sphere_CW-1.5_BG-grey_stim-white.png,0,185,185,185,186.90219615004025,,,,,,,,,,186.85512472502887,186.90219615004025,186.90219615004025,187.62749127100687,187.64159495703643,187.87501839501783,None,0,,,187.87422351003624,,sub-sepehr,ses-main-stim-z-1,run-1,grey,2024-04-25_13h04.20.182,VDT,2023.2.3,120.37708649106482,2024-04-25 13h05.19.083769 +0200,
./images_beh/Sphere_CCW-1.5_BG-grey_stim-white.png,0,186,186,186,187.919288478035,,,,,,,,,,187.8756289430312,187.919288478035,187.919288478035,188.62648567504948,188.65776044601807,188.80209921003552,None,0,,,,,sub-sepehr,ses-main-stim-z-1,run-1,grey,2024-04-25_13h04.20.182,VDT,2023.2.3,120.37708649106482,2024-04-25 13h05.19.083769 +0200,
./images_beh/Sphere_CW-1.5_BG-grey_stim-white.png,0,187,187,187,188.84631231304957,,,,,,,,,,188.8031547809951,188.87362749903696,188.87362749903696,189.62485116103198,189.6177368290373,189.80174659902696,None,0,,,,,sub-sepehr,ses-main-stim-z-1,run-1,grey,2024-04-25_13h04.20.182,VDT,2023.2.3,120.37708649106482,2024-04-25 13h05.19.083769 +0200,
./images_beh/Sphere_Ref_BG-grey_stim-white.png,0,188,188,188,189.84484370501013,,,,,,,,,,189.80270687601296,189.87307886901544,189.87307886901544,190.62403338501463,190.61748016503407,190.8068790830439,None,0,,,,,sub-sepehr,ses-main-stim-z-1,run-1,grey,2024-04-25_13h04.20.182,VDT,2023.2.3,120.37708649106482,2024-04-25 13h05.19.083769 +0200,
./images_beh/Sphere_CW-1.5_BG-grey_stim-white.png,0,189,189,189,190.8488978370442,,,,,,,,,,190.80739049601834,190.87281398201594,190.87281398201594,191.62411452602828,191.61704780504806,191.81792077905266,None,0,,,,,sub-sepehr,ses-main-stim-z-1,run-1,grey,2024-04-25_13h04.20.182,VDT,2023.2.3,120.37708649106482,2024-04-25 13h05.19.083769 +0200,
./images_beh/Sphere_CCW-1.5_BG-grey_stim-white.png,0,190,190,190,191.86445005203132,,,,,,,,,,191.8189782340196,191.86961130501004,191.86961130501004,192.62309454503702,192.61619945504935,192.80778893601382,None,0,,,,,sub-sepehr,ses-main-stim-z-1,run-1,grey,2024-04-25_13h04.20.182,VDT,2023.2.3,120.37708649106482,2024-04-25 13h05.19.083769 +0200,
./images_beh/Sphere_Ref_BG-grey_stim-white.png,0,191,191,191,192.85328469105298,,,,,,,,,,192.80852656502975,192.87162827001885,192.87162827001885,193.63534113799687,193.63534113799687,193.8670983480406,None,0,,,,,sub-sepehr,ses-main-stim-z-1,run-1,grey,2024-04-25_13h04.20.182,VDT,2023.2.3,120.37708649106482,2024-04-25 13h05.19.083769 +0200,
./images_beh/Sphere_CCW-1.5_BG-grey_stim-white.png,0,192,192,192,193.91080575803062,,,,,,,,,,193.86792025901377,193.91080575803062,193.91080575803062,194.63208460999886,194.65635031601414,194.84933803603053,None,0,,,,,sub-sepehr,ses-main-stim-z-1,run-1,grey,2024-04-25_13h04.20.182,VDT,2023.2.3,120.37708649106482,2024-04-25 13h05.19.083769 +0200,
./images_beh/Sphere_CW-1.5_BG-grey_stim-white.png,0,193,193,193,194.89825426001335,,,,,,,,,,194.85053259000415,194.89825426001335,194.89825426001335,195.6225204920047,195.63888411800144,195.85166209802264,None,0,,,,,sub-sepehr,ses-main-stim-z-1,run-1,grey,2024-04-25_13h04.20.182,VDT,2023.2.3,120.37708649106482,2024-04-25 13h05.19.083769 +0200,
./images_beh/Sphere_Ref_BG-grey_stim-white.png,0,194,194,194,195.901182325033,,,,,,,,,,195.85239123902284,195.901182325033,195.901182325033,196.62033436400816,196.64753616804956,196.8209214990493,['space'],0,0.5371867559733801,None,,,sub-sepehr,ses-main-stim-z-1,run-1,grey,2024-04-25_13h04.20.182,VDT,2023.2.3,120.37708649106482,2024-04-25 13h05.19.083769 +0200,
./images_beh/Sphere_CW-1.5_BG-grey_stim-white.png,0,195,195,195,196.86174761503935,,,,,,,,,,196.82173733302625,196.8805882690358,196.8805882690358,197.62044069403782,197.62044069403782,197.84863774903351,None,0,,,,,sub-sepehr,ses-main-stim-z-1,run-1,grey,2024-04-25_13h04.20.182,VDT,2023.2.3,120.37708649106482,2024-04-25 13h05.19.083769 +0200,
./images_beh/Sphere_CW-1.5_BG-grey_stim-white.png,0,196,196,196,197.8974039700115,,,,,,,,,,197.84978211502312,197.8974039700115,197.8974039700115,198.62230495701078,198.63764999702107,198.8210931190406,None,0,,,,,sub-sepehr,ses-main-stim-z-1,run-1,grey,2024-04-25_13h04.20.182,VDT,2023.2.3,120.37708649106482,2024-04-25 13h05.19.083769 +0200,
./images_beh/Sphere_CCW-1.5_BG-grey_stim-white.png,0,197,197,197,198.86454833700554,,,,,,,,,,198.82167264504824,198.87976410303963,198.87976410303963,199.62971464003203,199.61922565300483,199.82088384300005,None,0,,,,,sub-sepehr,ses-main-stim-z-1,run-1,grey,2024-04-25_13h04.20.182,VDT,2023.2.3,120.37708649106482,2024-04-25 13h05.19.083769 +0200,
./images_beh/Sphere_CCW-1.5_BG-grey_stim-white.png,0,198,198,198,199.8696282550227,,,,,,,,,,199.82160387700424,199.87904020404676,199.87904020404676,200.62911941704806,200.61918418999994,200.79940294200787,None,0,,,,,sub-sepehr,ses-main-stim-z-1,run-1,grey,2024-04-25_13h04.20.182,VDT,2023.2.3,120.37708649106482,2024-04-25 13h05.19.083769 +0200,
./images_beh/Sphere_CCW-1.5_BG-grey_stim-white.png,0,199,199,199,200.84620141104097,,,,,,,,,,200.80013514804887,200.87918312801048,200.87918312801048,201.63109083700692,201.61698009399697,201.81982108199736,None,0,,,,,sub-sepehr,ses-main-stim-z-1,run-1,grey,2024-04-25_13h04.20.182,VDT,2023.2.3,120.37708649106482,2024-04-25 13h05.19.083769 +0200,
./images_beh/Sphere_CW-1.5_BG-grey_stim-white.png,0,200,200,200,201.86773109901696,,,,,,,,,,201.8206272800453,201.87803525902564,201.87803525902564,202.62833289802074,202.62833289802074,202.81917146604974,None,0,,,,,sub-sepehr,ses-main-stim-z-1,run-1,grey,2024-04-25_13h04.20.182,VDT,2023.2.3,120.37708649106482,2024-04-25 13h05.19.083769 +0200,
./images_beh/Sphere_Ref_BG-grey_stim-white.png,0,201,201,201,202.86671064601978,,,,,,,,,,202.81989099399652,202.8776449240395,202.8776449240395,203.62702806002926,203.61479438404785,203.87876940600108,['space'],0,0.537474991986528,None,203.86638186505297,203.86638186505297,sub-sepehr,ses-main-stim-z-1,run-1,grey,2024-04-25_13h04.20.182,VDT,2023.2.3,120.37708649106482,2024-04-25 13h05.19.083769 +0200,
./images_beh/Sphere_CW-1.5_BG-grey_stim-white.png,0,202,202,202,203.9259852100513,,,,,,,,,,203.87988067400875,203.9259852100513,203.9259852100513,204.6267296160222,204.6665411380236,204.81826974701835,None,0,,,,,sub-sepehr,ses-main-stim-z-1,run-1,grey,2024-04-25_13h04.20.182,VDT,2023.2.3,120.37708649106482,2024-04-25 13h05.19.083769 +0200,
./images_beh/Sphere_CCW-1.5_BG-grey_stim-white.png,0,203,203,203,204.86911558301654,,,,,,,,,,204.82100253301905,204.876709039032,204.876709039032,205.6269686780288,205.61531568103237,205.85133076400962,None,0,,,,,sub-sepehr,ses-main-stim-z-1,run-1,grey,2024-04-25_13h04.20.182,VDT,2023.2.3,120.37708649106482,2024-04-25 13h05.19.083769 +0200,
./images_beh/Sphere_Ref_BG-grey_stim-white.png,0,204,204,204,205.90172508201795,,,,,,,,,,205.85234472801676,205.90172508201795,205.90172508201795,206.63498490204802,206.64249467704212,206.86288032203447,['space'],0,0.5442053769947961,None,,,sub-sepehr,ses-main-stim-z-1,run-1,grey,2024-04-25_13h04.20.182,VDT,2023.2.3,120.37708649106482,2024-04-25 13h05.19.083769 +0200,
./images_beh/Sphere_CCW-1.5_BG-grey_stim-white.png,0,205,205,205,206.91392886900576,,,,,,,,,,206.86383282701718,206.91392886900576,206.91392886900576,207.63370262400713,207.65926524205133,207.8429467480164,None,0,,,,,sub-sepehr,ses-main-stim-z-1,run-1,grey,2024-04-25_13h04.20.182,VDT,2023.2.3,120.37708649106482,2024-04-25 13h05.19.083769 +0200,
./images_beh/Sphere_CCW-1.5_BG-grey_stim-white.png,0,206,206,206,207.89078315300867,,,,,,,,,,207.84417907800525,207.89078315300867,207.89078315300867,208.6251207330497,208.6328104060376,208.81188979902072,None,0,,,,,sub-sepehr,ses-main-stim-z-1,run-1,grey,2024-04-25_13h04.20.182,VDT,2023.2.3,120.37708649106482,2024-04-25 13h05.19.083769 +0200,
./images_beh/Sphere_CCW-1.5_BG-grey_stim-white.png,0,207,207,207,208.8588697660016,,,,,,,,,,208.81261670700042,208.881135061034,208.881135061034,209.6244949240354,209.6244949240354,209.86110540601658,None,0,,,,,sub-sepehr,ses-main-stim-z-1,run-1,grey,2024-04-25_13h04.20.182,VDT,2023.2.3,120.37708649106482,2024-04-25 13h05.19.083769 +0200,
./images_beh/Sphere_CW-1.5_BG-grey_stim-white.png,0,208,208,208,209.91096694103908,,,,,,,,,,209.861839995021,209.91096694103908,209.91096694103908,210.6433566030464,210.6578508960083,210.80867876700358,None,0,,,,,sub-sepehr,ses-main-stim-z-1,run-1,grey,2024-04-25_13h04.20.182,VDT,2023.2.3,120.37708649106482,2024-04-25 13h05.19.083769 +0200,
./images_beh/Sphere_CW-1.5_BG-grey_stim-white.png,0,209,209,209,210.8559070629999,,,,,,,,,,210.80962863902096,210.88013367902022,210.88013367902022,211.62337238900363,211.62337238900363,211.80793223902583,None,0,,,,,sub-sepehr,ses-main-stim-z-1,run-1,grey,2024-04-25_13h04.20.182,VDT,2023.2.3,120.37708649106482,2024-04-25 13h05.19.083769 +0200,
./images_beh/Sphere_Ref_BG-grey_stim-white.png,0,210,210,210,211.85743181500584,,,,,,,,,,211.80897131602978,211.87972151703434,211.87972151703434,212.63080739905126,212.62298849702347,212.82365777902305,['space'],0,0.6467587759834714,None,,,sub-sepehr,ses-main-stim-z-1,run-1,grey,2024-04-25_13h04.20.182,VDT,2023.2.3,120.37708649106482,2024-04-25 13h05.19.083769 +0200,
./images_beh/Sphere_CW-1.5_BG-grey_stim-white.png,0,211,211,211,212.86899226502283,,,,,,,,,,212.82507227401948,212.87477034702897,212.87477034702897,213.64212900900748,213.62483893503668,213.85693132603774,None,0,,,,,sub-sepehr,ses-main-stim-z-1,run-1,grey,2024-04-25_13h04.20.182,VDT,2023.2.3,120.37708649106482,2024-04-25 13h05.19.083769 +0200,
./images_beh/Sphere_CW-1.5_BG-grey_stim-white.png,0,212,212,212,213.90301254601218,,,,,,,,,,213.85771661100443,213.90301254601218,213.90301254601218,214.6294752920512,214.6452531060204,214.8131905880291,None,0,,,,,sub-sepehr,ses-main-stim-z-1,run-1,grey,2024-04-25_13h04.20.182,VDT,2023.2.3,120.37708649106482,2024-04-25 13h05.19.083769 +0200,
./images_beh/Sphere_Ref_BG-grey_stim-white.png,0,213,213,213,214.86023194604786,,,,,,,,,,214.81402104202425,214.87721801002044,214.87721801002044,215.6284170190338,215.62142785900505,215.81153554003686,None,0,,,,,sub-sepehr,ses-main-stim-z-1,run-1,grey,2024-04-25_13h04.20.182,VDT,2023.2.3,120.37708649106482,2024-04-25 13h05.19.083769 +0200,
./images_beh/Sphere_CW-1.5_BG-grey_stim-white.png,0,214,214,214,215.85356246400625,,,,,,,,,,215.81215576501563,215.8769166660495,215.8769166660495,216.6276035120245,216.62070192600368,216.85493995802244,None,0,,,,,sub-sepehr,ses-main-stim-z-1,run-1,grey,2024-04-25_13h04.20.182,VDT,2023.2.3,120.37708649106482,2024-04-25 13h05.19.083769 +0200,
./images_beh/Sphere_CCW-1.5_BG-grey_stim-white.png,0,215,215,215,216.90240976103814,,,,,,,,,,216.8560914300033,216.90240976103814,216.90240976103814,217.628046051017,217.64363596000476,217.86064568301663,None,0,,,,,sub-sepehr,ses-main-stim-z-1,run-1,grey,2024-04-25_13h04.20.182,VDT,2023.2.3,120.37708649106482,2024-04-25 13h05.19.083769 +0200,
./images_beh/Sphere_CCW-1.5_BG-grey_stim-white.png,0,216,216,216,217.90251275000628,,,,,,,,,,217.86121921701124,217.90251275000628,217.90251275000628,218.62795610702597,218.64273300004425,218.8044781649951,None,0,,,,,sub-sepehr,ses-main-stim-z-1,run-1,grey,2024-04-25_13h04.20.182,VDT,2023.2.3,120.37708649106482,2024-04-25 13h05.19.083769 +0200,
./images_beh/Sphere_CW-1.5_BG-grey_stim-white.png,0,217,217,217,218.85165300802328,,,,,,,,,,218.80535674700513,218.87562715401873,218.87562715401873,219.62637174600968,219.61952253599884,219.84222622402012,None,0,,,,,sub-sepehr,ses-main-stim-z-1,run-1,grey,2024-04-25_13h04.20.182,VDT,2023.2.3,120.37708649106482,2024-04-25 13h05.19.083769 +0200,
./images_beh/Sphere_Ref_BG-grey_stim-white.png,0,218,218,218,219.88056741800392,,,,,,,,,,219.84265647100983,219.88056741800392,219.88056741800392,220.6237082980224,220.6237082980224,220.83597990102135,['space'],0,0.6139269180130213,None,,,sub-sepehr,ses-main-stim-z-1,run-1,grey,2024-04-25_13h04.20.182,VDT,2023.2.3,120.37708649106482,2024-04-25 13h05.19.083769 +0200,
./images_beh/Sphere_CCW-1.5_BG-grey_stim-white.png,0,219,219,219,220.88055306801107,,,,,,,,,,220.83725660201162,220.88055306801107,220.88055306801107,221.62426491599763,221.62426491599763,221.8243548120372,None,0,,,,,sub-sepehr,ses-main-stim-z-1,run-1,grey,2024-04-25_13h04.20.182,VDT,2023.2.3,120.37708649106482,2024-04-25 13h05.19.083769 +0200,
./images_beh/Sphere_CCW-1.5_BG-grey_stim-white.png,0,220,220,220,221.86860628204886,,,,,,,,,,221.8249451010488,221.88473718200112,221.88473718200112,222.62336171302013,222.62336171302013,222.82477150304476,None,0,,,,,sub-sepehr,ses-main-stim-z-1,run-1,grey,2024-04-25_13h04.20.182,VDT,2023.2.3,120.37708649106482,2024-04-25 13h05.19.083769 +0200,
./images_beh/Sphere_Ref_BG-grey_stim-white.png,0,221,221,221,222.86980637605302,,,,,,,,,,222.8254494870198,222.88412126305047,222.88412126305047,223.62429742200766,223.62429742200766,223.81789107300574,None,0,,,,,sub-sepehr,ses-main-stim-z-1,run-1,grey,2024-04-25_13h04.20.182,VDT,2023.2.3,120.37708649106482,2024-04-25 13h05.19.083769 +0200,
./images_beh/Sphere_CW-1.5_BG-grey_stim-white.png,0,222,222,222,223.86274592601694,,,,,,,,,,223.81912162405206,223.87235022505047,223.87235022505047,224.6234682610375,224.6167138860328,224.81723700399743,None,0,,,,,sub-sepehr,ses-main-stim-z-1,run-1,grey,2024-04-25_13h04.20.182,VDT,2023.2.3,120.37708649106482,2024-04-25 13h05.19.083769 +0200,
./images_beh/Sphere_CW-1.5_BG-grey_stim-white.png,0,223,223,223,224.86383421800565,,,,,,,,,,224.81851654400816,224.86864870600402,224.86864870600402,225.6227354190196,225.6162168100127,225.800089520053,None,0,,,,,sub-sepehr,ses-main-stim-z-1,run-1,grey,2024-04-25_13h04.20.182,VDT,2023.2.3,120.37708649106482,2024-04-25 13h05.19.083769 +0200,
./images_beh/Sphere_CW-1.5_BG-grey_stim-white.png,0,224,224,224,225.84669743000995,,,,,,,,,,225.8013064090046,225.8826546240016,225.8826546240016,226.6228187860106,226.6228187860106,226.88615990104154,None,0,,,226.86781961703673,226.8854001139989,sub-sepehr,ses-main-stim-z-1,run-1,grey,2024-04-25_13h04.20.182,VDT,2023.2.3,120.37708649106482,2024-04-25 13h05.19.083769 +0200,
./images_beh/Sphere_Ref_BG-grey_stim-white.png,0,225,225,225,226.935685271048,,,,,,,,,,226.88688011700287,226.935685271048,226.935685271048,227.62284181901487,227.68173399503576,227.88509508804418,None,0,,,227.88428848900367,,sub-sepehr,ses-main-stim-z-1,run-1,grey,2024-04-25_13h04.20.182,VDT,2023.2.3,120.37708649106482,2024-04-25 13h05.19.083769 +0200,
./images_beh/Sphere_CCW-1.5_BG-grey_stim-white.png,0,226,226,226,227.9330068140407,,,,,,,,,,227.88582477904856,227.9330068140407,227.9330068140407,228.6345330150216,228.6813593810075,228.81538408901542,None,0,,,,,sub-sepehr,ses-main-stim-z-1,run-1,grey,2024-04-25_13h04.20.182,VDT,2023.2.3,120.37708649106482,2024-04-25 13h05.19.083769 +0200,
./images_beh/Sphere_CCW-1.5_BG-grey_stim-white.png,0,227,227,227,228.85975231300108,,,,,,,,,,228.81621731905034,228.86917434702627,228.86917434702627,229.62088478700025,229.61414462700486,229.81526952504646,None,0,,,,,sub-sepehr,ses-main-stim-z-1,run-1,grey,2024-04-25_13h04.20.182,VDT,2023.2.3,120.37708649106482,2024-04-25 13h05.19.083769 +0200,
./images_beh/Sphere_CW-1.5_BG-grey_stim-white.png,0,228,228,228,229.85721489303978,,,,,,,,,,229.81591137201758,229.86953437904594,229.86953437904594,230.62105065904325,230.61398252705112,230.83803230000194,None,0,,,,,sub-sepehr,ses-main-stim-z-1,run-1,grey,2024-04-25_13h04.20.182,VDT,2023.2.3,120.37708649106482,2024-04-25 13h05.19.083769 +0200,
./images_beh/Sphere_CCW-1.5_BG-grey_stim-white.png,0,229,229,229,230.88711817201693,,,,,,,,,,230.8387548760511,230.88711817201693,230.88711817201693,231.6300630470505,231.6300630470505,231.85421685600886,None,0,,,,,sub-sepehr,ses-main-stim-z-1,run-1,grey,2024-04-25_13h04.20.182,VDT,2023.2.3,120.37708649106482,2024-04-25 13h05.19.083769 +0200,
./images_beh/Sphere_Ref_BG-grey_stim-white.png,0,230,230,230,231.90461241500452,,,,,,,,,,231.8549542890396,231.90461241500452,231.90461241500452,232.62927568500163,232.65240780403838,232.84728970000288,['space'],0,0.5331544199725613,None,,,sub-sepehr,ses-main-stim-z-1,run-1,grey,2024-04-25_13h04.20.182,VDT,2023.2.3,120.37708649106482,2024-04-25 13h05.19.083769 +0200,
./images_beh/Sphere_CW-1.5_BG-grey_stim-white.png,0,231,231,231,232.89498002704931,,,,,,,,,,232.84833345504012,232.89498002704931,232.89498002704931,233.62889796099626,233.6358034540317,233.8630966010387,None,0,,,,,sub-sepehr,ses-main-stim-z-1,run-1,grey,2024-04-25_13h04.20.182,VDT,2023.2.3,120.37708649106482,2024-04-25 13h05.19.083769 +0200,
./images_beh/Sphere_CCW-1.5_BG-grey_stim-white.png,0,232,232,232,233.909469492035,,,,,,,,,,233.86427338904468,233.909469492035,233.909469492035,234.6281488670502,234.65240938100033,234.84617689304287,None,0,,,,,sub-sepehr,ses-main-stim-z-1,run-1,grey,2024-04-25_13h04.20.182,VDT,2023.2.3,120.37708649106482,2024-04-25 13h05.19.083769 +0200,
./images_beh/Sphere_CW-1.5_BG-grey_stim-white.png,0,233,233,233,234.89488822204294,,,,,,,,,,234.84702075103996,234.89488822204294,234.89488822204294,235.6276658870047,235.6344981950242,235.85181488702074,['space'],0,0.5909338220371865,None,,,sub-sepehr,ses-main-stim-z-1,run-1,grey,2024-04-25_13h04.20.182,VDT,2023.2.3,120.37708649106482,2024-04-25 13h05.19.083769 +0200,
./images_beh/Sphere_CCW-1.5_BG-grey_stim-white.png,0,234,234,234,235.90015516302083,,,,,,,,,,235.85275460302364,235.90015516302083,235.90015516302083,236.62732359400252,236.64366245502606,236.84472680505132,None,0,,,,,sub-sepehr,ses-main-stim-z-1,run-1,grey,2024-04-25_13h04.20.182,VDT,2023.2.3,120.37708649106482,2024-04-25 13h05.19.083769 +0200,
./images_beh/Sphere_CW-1.5_BG-grey_stim-white.png,0,235,235,235,236.8876031220425,,,,,,,,,,236.84548393799923,236.8876031220425,236.8876031220425,237.63418634905247,237.63418634905247,237.82981291000033,None,0,,,,,sub-sepehr,ses-main-stim-z-1,run-1,grey,2024-04-25_13h04.20.182,VDT,2023.2.3,120.37708649106482,2024-04-25 13h05.19.083769 +0200,
./images_beh/Sphere_CW-1.5_BG-grey_stim-white.png,0,236,236,236,237.87690899102017,,,,,,,,,,237.830662088003,237.88237617100822,237.88237617100822,238.62650841503637,238.62650841503637,238.81068417499773,None,0,,,,,sub-sepehr,ses-main-stim-z-1,run-1,grey,2024-04-25_13h04.20.182,VDT,2023.2.3,120.37708649106482,2024-04-25 13h05.19.083769 +0200,
./images_beh/Sphere_CW-1.5_BG-grey_stim-white.png,0,237,237,237,238.85631438100245,,,,,,,,,,238.8114736280404,238.8825050650048,238.8825050650048,239.62596004002262,239.62596004002262,239.8269215580076,None,0,,,,,sub-sepehr,ses-main-stim-z-1,run-1,grey,2024-04-25_13h04.20.182,VDT,2023.2.3,120.37708649106482,2024-04-25 13h05.19.083769 +0200,
./images_beh/Sphere_CCW-1.5_BG-grey_stim-white.png,0,238,238,238,239.8708768080105,,,,,,,,,,239.82769099599682,239.8769015430007,239.8769015430007,240.6251179870451,240.6251179870451,240.81529942702036,['space'],0,0.6408587580081075,None,,,sub-sepehr,ses-main-stim-z-1,run-1,grey,2024-04-25_13h04.20.182,VDT,2023.2.3,120.37708649106482,2024-04-25 13h05.19.083769 +0200,
./images_beh/Sphere_Ref_BG-grey_stim-white.png,0,239,239,239,240.85604446200887,,,,,,,,,,240.81594176305225,240.8811261600349,240.8811261600349,241.62752089602873,241.62752089602873,241.7920316280215,None,0,,,,,sub-sepehr,ses-main-stim-z-1,run-1,grey,2024-04-25_13h04.20.182,VDT,2023.2.3,120.37708649106482,2024-04-25 13h05.19.083769 +0200,
./images_beh/Sphere_CCW-1.5_BG-grey_stim-white.png,0,240,240,240,241.83460876403842,,,,,,,,,,241.79282564704772,241.88045731704915,241.88045731704915,242.62425524304854,242.62425524304854,242.831852361036,None,0,,,,,sub-sepehr,ses-main-stim-z-1,run-1,grey,2024-04-25_13h04.20.182,VDT,2023.2.3,120.37708649106482,2024-04-25 13h05.19.083769 +0200,
./images_beh/Sphere_CW-1.5_BG-grey_stim-white.png,0,241,241,241,242.87843798700487,,,,,,,,,,242.83256138605066,242.87843798700487,242.87843798700487,243.63075407600263,243.63075407600263,243.84172974101966,None,0,,,,,sub-sepehr,ses-main-stim-z-1,run-1,grey,2024-04-25_13h04.20.182,VDT,2023.2.3,120.37708649106482,2024-04-25 13h05.19.083769 +0200,
./images_beh/Sphere_Ref_BG-grey_stim-white.png,0,242,242,242,243.8890429890016,,,,,,,,,,243.84250047104433,243.8890429890016,243.8890429890016,244.62918614200316,244.62918614200316,244.86493580701062,None,0,,,,,sub-sepehr,ses-main-stim-z-1,run-1,grey,2024-04-25_13h04.20.182,VDT,2023.2.3,120.37708649106482,2024-04-25 13h05.19.083769 +0200,
./images_beh/Sphere_CCW-1.5_BG-grey_stim-white.png,0,243,243,243,244.9152852030238,,,,,,,,,,244.8656446650275,244.9152852030238,244.9152852030238,245.63116411003284,245.66228680103086,245.82606881001266,None,0,,,,,sub-sepehr,ses-main-stim-z-1,run-1,grey,2024-04-25_13h04.20.182,VDT,2023.2.3,120.37708649106482,2024-04-25 13h05.19.083769 +0200,
./images_beh/Sphere_CW-1.5_BG-grey_stim-white.png,0,244,244,244,245.87525134003954,,,,,,,,,,245.82680005102884,245.88916311605135,245.88916311605135,246.62933599803364,246.62933599803364,246.82360854605213,None,0,,,,,sub-sepehr,ses-main-stim-z-1,run-1,grey,2024-04-25_13h04.20.182,VDT,2023.2.3,120.37708649106482,2024-04-25 13h05.19.083769 +0200,
./images_beh/Sphere_CCW-1.5_BG-grey_stim-white.png,0,245,245,245,246.8703215350397,,,,,,,,,,246.82457198301563,246.8761399470386,246.8761399470386,247.62873800902162,247.62191843503388,247.85822108504362,['space'],0,0.6659812949947082,None,,,sub-sepehr,ses-main-stim-z-1,run-1,grey,2024-04-25_13h04.20.182,VDT,2023.2.3,120.37708649106482,2024-04-25 13h05.19.083769 +0200,
./images_beh/Sphere_Ref_BG-grey_stim-white.png,0,246,246,246,247.9080739740166,,,,,,,,,,247.8591546730022,247.9080739740166,247.9080739740166,248.62930896499893,248.654480341007,248.82478912599618,None,0,,,,,sub-sepehr,ses-main-stim-z-1,run-1,grey,2024-04-25_13h04.20.182,VDT,2023.2.3,120.37708649106482,2024-04-25 13h05.19.083769 +0200,
./images_beh/Sphere_CCW-1.5_BG-grey_stim-white.png,0,247,247,247,248.87359441805165,,,,,,,,,,248.8255140260444,248.88755129801575,248.88755129801575,249.6277367590228,249.6277367590228,249.80986176501028,None,0,,,,,sub-sepehr,ses-main-stim-z-1,run-1,grey,2024-04-25_13h04.20.182,VDT,2023.2.3,120.37708649106482,2024-04-25 13h05.19.083769 +0200,
./images_beh/Sphere_CW-1.5_BG-grey_stim-white.png,0,248,248,248,249.8470739070326,,,,,,,,,,249.81033887102967,249.87605549301952,249.87605549301952,250.62670967105078,250.6203271690174,250.81065220199525,None,0,,,,,sub-sepehr,ses-main-stim-z-1,run-1,grey,2024-04-25_13h04.20.182,VDT,2023.2.3,120.37708649106482,2024-04-25 13h05.19.083769 +0200,
./images_beh/Sphere_Ref_BG-grey_stim-white.png,0,249,249,249,250.85528704803437,,,,,,,,,,250.81123465002747,250.87593744701007,250.87593744701007,251.625574625039,251.61939862603322,251.85390300804283,['space'],0,0.6423803009674884,None,,,sub-sepehr,ses-main-stim-z-1,run-1,grey,2024-04-25_13h04.20.182,VDT,2023.2.3,120.37708649106482,2024-04-25 13h05.19.083769 +0200,
./images_beh/Sphere_CCW-1.5_BG-grey_stim-white.png,0,250,250,250,251.89980037504574,,,,,,,,,,251.8546847930411,251.89980037504574,251.89980037504574,252.6273750460241,252.64167507103411,252.8701682719984,None,0,,,,,sub-sepehr,ses-main-stim-z-1,run-1,grey,2024-04-25_13h04.20.182,VDT,2023.2.3,120.37708649106482,2024-04-25 13h05.19.083769 +0200,
./images_beh/Sphere_CW-1.5_BG-grey_stim-white.png,0,251,251,251,252.91957173199626,,,,,,,,,,252.8709589780192,252.91957173199626,252.91957173199626,253.62631494301604,253.6584973030258,253.8597505930229,None,0,,,,,sub-sepehr,ses-main-stim-z-1,run-1,grey,2024-04-25_13h04.20.182,VDT,2023.2.3,120.37708649106482,2024-04-25 13h05.19.083769 +0200,
./images_beh/Sphere_CCW-1.5_BG-grey_stim-white.png,0,252,252,252,253.90908143302659,,,,,,,,,,253.86057352100033,253.90908143302659,253.90908143302659,254.62551810505101,254.65130467299605,254.8248812649981,None,0,,,,,sub-sepehr,ses-main-stim-z-1,run-1,grey,2024-04-25_13h04.20.182,VDT,2023.2.3,120.37708649106482,2024-04-25 13h05.19.083769 +0200,
./images_beh/Sphere_CW-1.5_BG-grey_stim-white.png,0,253,253,253,254.86963082803413,,,,,,,,,,254.82555193302687,254.88446359703084,254.88446359703084,255.6238207340357,255.6238207340357,255.82427768601337,None,0,,,,,sub-sepehr,ses-main-stim-z-1,run-1,grey,2024-04-25_13h04.20.182,VDT,2023.2.3,120.37708649106482,2024-04-25 13h05.19.083769 +0200,
./images_beh/Sphere_CCW-1.5_BG-grey_stim-white.png,0,254,254,254,255.8713812220376,,,,,,,,,,255.82499846402789,255.88372131000506,255.88372131000506,256.62358457403025,256.62358457403025,256.80822498502675,None,0,,,,,sub-sepehr,ses-main-stim-z-1,run-1,grey,2024-04-25_13h04.20.182,VDT,2023.2.3,120.37708649106482,2024-04-25 13h05.19.083769 +0200,
./images_beh/Sphere_Ref_BG-grey_stim-white.png,0,255,255,255,256.8566523640184,,,,,,,,,,256.80894934904063,256.8722296800115,256.8722296800115,257.62178155605216,257.61633056402206,257.8339175230358,['space'],0,0.558160375978332,None,,,sub-sepehr,ses-main-stim-z-1,run-1,grey,2024-04-25_13h04.20.182,VDT,2023.2.3,120.37708649106482,2024-04-25 13h05.19.083769 +0200,
./images_beh/Sphere_CW-1.5_BG-grey_stim-white.png,0,256,256,256,257.8813313150313,,,,,,,,,,257.835188683006,257.8813313150313,257.8813313150313,258.62306368304417,258.62306368304417,258.8061352040386,None,0,,,,,sub-sepehr,ses-main-stim-z-1,run-1,grey,2024-04-25_13h04.20.182,VDT,2023.2.3,120.37708649106482,2024-04-25 13h05.19.083769 +0200,
./images_beh/Sphere_CCW-1.5_BG-grey_stim-white.png,0,257,257,257,258.8501634830027,,,,,,,,,,258.80674681899836,258.87061653001,258.87061653001,259.6221547430032,259.61530374200083,259.8236733240192,None,0,,,,,sub-sepehr,ses-main-stim-z-1,run-1,grey,2024-04-25_13h04.20.182,VDT,2023.2.3,120.37708649106482,2024-04-25 13h05.19.083769 +0200,
./images_beh/Sphere_Ref_BG-grey_stim-white.png,0,258,258,258,259.8721130200429,,,,,,,,,,259.824525611999,259.8817975250422,259.8817975250422,260.62044061301276,260.62044061301276,260.8015651770402,None,0,,,,,sub-sepehr,ses-main-stim-z-1,run-1,grey,2024-04-25_13h04.20.182,VDT,2023.2.3,120.37708649106482,2024-04-25 13h05.19.083769 +0200,
./images_beh/Sphere_CW-1.5_BG-grey_stim-white.png,0,259,259,259,260.84936893504346,,,,,,,,,,260.80228853505105,260.8705721340375,260.8705721340375,261.6227309590322,261.61508599302033,261.82167784904595,None,0,,,,,sub-sepehr,ses-main-stim-z-1,run-1,grey,2024-04-25_13h04.20.182,VDT,2023.2.3,120.37708649106482,2024-04-25 13h05.19.083769 +0200,
./images_beh/Sphere_CW-1.5_BG-grey_stim-white.png,0,260,260,260,261.8652010700316,,,,,,,,,,261.822263581038,261.8705808390514,261.8705808390514,262.6200997120468,262.6138934510527,262.8535637630266,None,0,,,,,sub-sepehr,ses-main-stim-z-1,run-1,grey,2024-04-25_13h04.20.182,VDT,2023.2.3,120.37708649106482,2024-04-25 13h05.19.083769 +0200,
./images_beh/Sphere_CW-1.5_BG-grey_stim-white.png,0,261,261,261,262.90003788803006,,,,,,,,,,262.854311092,262.90003788803006,262.90003788803006,263.6215542120044,263.6469803490327,263.86434654099867,None,0,,,,,sub-sepehr,ses-main-stim-z-1,run-1,grey,2024-04-25_13h04.20.182,VDT,2023.2.3,120.37708649106482,2024-04-25 13h05.19.083769 +0200,
./images_beh/Sphere_Ref_BG-grey_stim-white.png,0,262,262,262,263.9098305440275,,,,,,,,,,263.8655260259984,263.9098305440275,263.9098305440275,264.62985748104984,264.6520770890056,264.8332002190291,None,0,,,,,sub-sepehr,ses-main-stim-z-1,run-1,grey,2024-04-25_13h04.20.182,VDT,2023.2.3,120.37708649106482,2024-04-25 13h05.19.083769 +0200,
./images_beh/Sphere_CCW-1.5_BG-grey_stim-white.png,0,263,263,263,264.88212400500197,,,,,,,,,,264.83391916099936,264.88212400500197,264.88212400500197,265.62981764104916,265.62981764104916,265.82118430704577,None,0,,,,,sub-sepehr,ses-main-stim-z-1,run-1,grey,2024-04-25_13h04.20.182,VDT,2023.2.3,120.37708649106482,2024-04-25 13h05.19.083769 +0200,
./images_beh/Sphere_CCW-1.5_BG-grey_stim-white.png,0,264,264,264,265.86502162500983,,,,,,,,,,265.8217686780263,265.87882672902197,265.87882672902197,266.6290355590172,266.6181836940232,266.868813373032,None,0,,,266.868004752032,266.868004752032,sub-sepehr,ses-main-stim-z-1,run-1,grey,2024-04-25_13h04.20.182,VDT,2023.2.3,120.37708649106482,2024-04-25 13h05.19.083769 +0200,
./images_beh/Sphere_Ref_BG-grey_stim-white.png,0,265,265,265,266.91640672500944,,,,,,,,,,266.8696833460126,266.91640672500944,266.91640672500944,267.62771352904383,267.6608643560321,267.8677964369999,['space'],0,0.5941300720442086,None,267.8669429530273,,sub-sepehr,ses-main-stim-z-1,run-1,grey,2024-04-25_13h04.20.182,VDT,2023.2.3,120.37708649106482,2024-04-25 13h05.19.083769 +0200,
./images_beh/Sphere_CCW-1.5_BG-grey_stim-white.png,0,266,266,266,267.91484303504694,,,,,,,,,,267.8687006760156,267.91484303504694,267.91484303504694,268.63046056905296,268.66111682599876,268.8179868570296,None,0,,,,,sub-sepehr,ses-main-stim-z-1,run-1,grey,2024-04-25_13h04.20.182,VDT,2023.2.3,120.37708649106482,2024-04-25 13h05.19.083769 +0200,
./images_beh/Sphere_CW-1.5_BG-grey_stim-white.png,0,267,267,267,268.8540406390093,,,,,,,,,,268.81850540702,268.87770346703473,268.87770346703473,269.6271675960161,269.61646670801565,269.82725819404004,None,0,,,,,sub-sepehr,ses-main-stim-z-1,run-1,grey,2024-04-25_13h04.20.182,VDT,2023.2.3,120.37708649106482,2024-04-25 13h05.19.083769 +0200,
./images_beh/Sphere_CCW-1.5_BG-grey_stim-white.png,0,268,268,268,269.86562821501866,,,,,,,,,,269.8280901920516,269.87732526502805,269.87732526502805,270.6270034740446,270.61597301403526,270.8506657400285,None,0,,,,,sub-sepehr,ses-main-stim-z-1,run-1,grey,2024-04-25_13h04.20.182,VDT,2023.2.3,120.37708649106482,2024-04-25 13h05.19.083769 +0200,
./images_beh/Sphere_CW-1.5_BG-grey_stim-white.png,0,269,269,269,270.8953594570048,,,,,,,,,,270.8512656050152,270.8953594570048,270.8953594570048,271.6261536340462,271.64293801400345,271.8507640020107,None,0,,,,,sub-sepehr,ses-main-stim-z-1,run-1,grey,2024-04-25_13h04.20.182,VDT,2023.2.3,120.37708649106482,2024-04-25 13h05.19.083769 +0200,
