image,trials.thisRepN,trials.thisTrialN,trials.thisN,trials.thisIndex,thisRow.t,notes,WaitingForScannerTrigger.started,Vertical.started,key_resp.started,WaitingForScannerTrigger.stopped,key_resp.keys,key_resp.corr,key_resp.rt,key_resp.duration,VDT.started,PresentedLine1.started,key_resp_2.started,FixDot2.started,PresentedLine1.stopped,VDT.stopped,key_resp_2.keys,key_resp_2.corr,FixDot2.stopped,key_resp_2.rt,key_resp_2.duration,key_resp_2.stopped,participant,session,run,BG_color,date,expName,psychopyVersion,frameRate,expStart,
,,,,,,,0.005428054020740092,0.014224231010302901,0.014224231010302901,2.0477409469895065,s,0,1.9857791849644855,None,,,,,,,,,,,,,sub-septest,ses-main,run-1,grey,2024-04-24_11h44.32.912,VDT,2023.2.3,121.0155098483288,2024-04-24 11h44.41.351736 +0200,
./images_beh/Sphere_CCW-3.75_BG-grey_stim-white.png,0,0,0,0,2.135517910006456,,,,,,,,,,2.0778225550311618,2.135517910006456,2.135517910006456,2.790542092989199,2.8813550359918736,2.9895546690095216,None,0,,,,,sub-septest,ses-main,run-1,grey,2024-04-24_11h44.32.912,VDT,2023.2.3,121.0155098483288,2024-04-24 11h44.41.351736 +0200,
./images_beh/Sphere_CCW-3.75_BG-grey_stim-white.png,0,1,1,1,3.029739245015662,,,,,,,,,,2.9936807560152374,3.0486671830294654,3.0486671830294654,3.81398590200115,3.81398590200115,4.0312614680151455,None,0,,,,,sub-septest,ses-main,run-1,grey,2024-04-24_11h44.32.912,VDT,2023.2.3,121.0155098483288,2024-04-24 11h44.41.351736 +0200,
./images_beh/Sphere_CW-3.75_BG-grey_stim-white.png,0,2,2,2,4.086976605001837,,,,,,,,,,4.032396897033323,4.086976605001837,4.086976605001837,4.792128937027883,4.839931416034233,5.038579447020311,None,0,5.037447307026014,,,,sub-septest,ses-main,run-1,grey,2024-04-24_11h44.32.912,VDT,2023.2.3,121.0155098483288,2024-04-24 11h44.41.351736 +0200,
./images_beh/Sphere_Ref_BG-grey_stim-white.png,0,3,3,3,5.089285917987581,,,,,,,,,,5.03940028703073,5.089285917987581,5.089285917987581,5.797866807028186,5.832571330014616,5.997537181014195,['space'],0,,0.4063666210277006,None,,sub-septest,ses-main,run-1,grey,2024-04-24_11h44.32.912,VDT,2023.2.3,121.0155098483288,2024-04-24 11h44.41.351736 +0200,
./images_beh/Sphere_CCW-3.75_BG-grey_stim-white.png,0,4,4,4,6.040854411025066,,,,,,,,,,5.998821582004894,6.049433731997851,6.049433731997851,6.796055860992055,6.796055860992055,6.99105224001687,None,0,,,,,sub-septest,ses-main,run-1,grey,2024-04-24_11h44.32.912,VDT,2023.2.3,121.0155098483288,2024-04-24 11h44.41.351736 +0200,
./images_beh/Sphere_CCW-3.75_BG-grey_stim-white.png,0,5,5,5,7.039305864018388,,,,,,,,,,6.991777895018458,7.048115655023139,7.048115655023139,7.788552632031497,7.79619313403964,8.030553651042283,None,0,,,,,sub-septest,ses-main,run-1,grey,2024-04-24_11h44.32.912,VDT,2023.2.3,121.0155098483288,2024-04-24 11h44.41.351736 +0200,
./images_beh/Sphere_Ref_BG-grey_stim-white.png,0,6,6,6,8.084042628004681,,,,,,,,,,8.031660069013014,8.084042628004681,8.084042628004681,8.795584114035591,8.829450606019236,8.997554961999413,None,0,,,,,sub-septest,ses-main,run-1,grey,2024-04-24_11h44.32.912,VDT,2023.2.3,121.0155098483288,2024-04-24 11h44.41.351736 +0200,
./images_beh/Sphere_CW-3.75_BG-grey_stim-white.png,0,7,7,7,9.039865104015917,,,,,,,,,,8.998387922008988,9.049828033021186,9.049828033021186,9.796973861986771,9.796973861986771,10.037515585019719,None,0,,,,,sub-septest,ses-main,run-1,grey,2024-04-24_11h44.32.912,VDT,2023.2.3,121.0155098483288,2024-04-24 11h44.41.351736 +0200,
./images_beh/Sphere_CW-3.75_BG-grey_stim-white.png,0,8,8,8,10.085677327995654,,,,,,,,,,10.038207287027035,10.085677327995654,10.085677327995654,10.78943787200842,10.839446383004542,11.014737831021193,None,0,,,,,sub-septest,ses-main,run-1,grey,2024-04-24_11h44.32.912,VDT,2023.2.3,121.0155098483288,2024-04-24 11h44.41.351736 +0200,
./images_beh/Sphere_Ref_BG-grey_stim-white.png,0,9,9,9,11.067832686996553,,,,,,,,,,11.015477298002224,11.067832686996553,11.067832686996553,11.794897360028699,11.81240701500792,11.971393843006808,['space'],0,,0.4954158409964293,None,,sub-septest,ses-main,run-1,grey,2024-04-24_11h44.32.912,VDT,2023.2.3,121.0155098483288,2024-04-24 11h44.41.351736 +0200,
./images_beh/Sphere_CW-3.75_BG-grey_stim-white.png,0,10,10,10,12.024428470002022,,,,,,,,,,11.972521841002163,12.061683034989983,12.061683034989983,12.797408006037585,12.812407963036094,13.04883228201652,None,0,,,,,sub-septest,ses-main,run-1,grey,2024-04-24_11h44.32.912,VDT,2023.2.3,121.0155098483288,2024-04-24 11h44.41.351736 +0200,
./images_beh/Sphere_CCW-3.75_BG-grey_stim-white.png,0,11,11,11,13.104045081010554,,,,,,,,,,13.04960079601733,13.104045081010554,13.104045081010554,13.797837107034866,13.861399957037065,13.987383718020283,None,0,,,,,sub-septest,ses-main,run-1,grey,2024-04-24_11h44.32.912,VDT,2023.2.3,121.0155098483288,2024-04-24 11h44.41.351736 +0200,
./images_beh/Sphere_CW-3.75_BG-grey_stim-white.png,0,12,12,12,14.047893635986838,,,,,,,,,,13.988615063019097,14.047893635986838,14.047893635986838,14.802419290994294,14.802419290994294,15.078347384987865,None,0,15.060887600004207,,,15.060887600004207,sub-septest,ses-main,run-1,grey,2024-04-24_11h44.32.912,VDT,2023.2.3,121.0155098483288,2024-04-24 11h44.41.351736 +0200,
./images_beh/Sphere_Ref_BG-grey_stim-white.png,0,13,13,13,15.12299001798965,,,,,,,,,,15.078849687997717,15.12299001798965,15.12299001798965,15.794194845017046,15.869255541008897,16.003394845000003,['space'],0,,0.40140700398478657,None,,sub-septest,ses-main,run-1,grey,2024-04-24_11h44.32.912,VDT,2023.2.3,121.0155098483288,2024-04-24 11h44.41.351736 +0200,
./images_beh/Sphere_CCW-3.75_BG-grey_stim-white.png,0,14,14,14,16.048674693040084,,,,,,,,,,16.0041719530127,16.048674693040084,16.048674693040084,16.804893416992854,16.804893416992854,17.02785691904137,None,0,,,,,sub-septest,ses-main,run-1,grey,2024-04-24_11h44.32.912,VDT,2023.2.3,121.0155098483288,2024-04-24 11h44.41.351736 +0200,
./images_beh/Sphere_CCW-3.75_BG-grey_stim-white.png,0,15,15,15,17.08956442400813,,,,,,,,,,17.02869945403654,17.08956442400813,17.08956442400813,17.797945197031368,17.838420551037416,18.035424210014753,None,0,,,,,sub-septest,ses-main,run-1,grey,2024-04-24_11h44.32.912,VDT,2023.2.3,121.0155098483288,2024-04-24 11h44.41.351736 +0200,
./images_beh/Sphere_CW-3.75_BG-grey_stim-white.png,0,16,16,16,18.088514820032287,,,,,,,,,,18.03633258503396,18.088514820032287,18.088514820032287,18.803156690031756,18.84319173800759,19.06816677103052,None,0,19.0598611930036,,,,sub-septest,ses-main,run-1,grey,2024-04-24_11h44.32.912,VDT,2023.2.3,121.0155098483288,2024-04-24 11h44.41.351736 +0200,
./images_beh/Sphere_CW-3.75_BG-grey_stim-white.png,0,17,17,17,19.111577881034464,,,,,,,,,,19.068618912016973,19.111577881034464,19.111577881034464,19.803853223042097,19.859574953035917,19.960363504011184,None,0,,,,,sub-septest,ses-main,run-1,grey,2024-04-24_11h44.32.912,VDT,2023.2.3,121.0155098483288,2024-04-24 11h44.41.351736 +0200,
./images_beh/Sphere_CCW-3.75_BG-grey_stim-white.png,0,18,18,18,20.01080234302208,,,,,,,,,,19.961094208993018,20.045503436995205,20.045503436995205,20.792667641013395,20.792667641013395,21.003700017987285,None,0,,,,,sub-septest,ses-main,run-1,grey,2024-04-24_11h44.32.912,VDT,2023.2.3,121.0155098483288,2024-04-24 11h44.41.351736 +0200,
./images_beh/Sphere_CCW-3.75_BG-grey_stim-white.png,0,19,19,19,21.057133889000397,,,,,,,,,,21.004625061003026,21.057133889000397,21.057133889000397,21.801422705000732,21.801422705000732,21.979812687030062,None,0,,,,,sub-septest,ses-main,run-1,grey,2024-04-24_11h44.32.912,VDT,2023.2.3,121.0155098483288,2024-04-24 11h44.41.351736 +0200,
./images_beh/Sphere_CCW-3.75_BG-grey_stim-white.png,0,20,20,20,22.023731535999104,,,,,,,,,,21.980394534999505,22.04473407001933,22.04473407001933,22.800822635996155,22.791791514027864,22.959065940987784,None,0,,,,,sub-septest,ses-main,run-1,grey,2024-04-24_11h44.32.912,VDT,2023.2.3,121.0155098483288,2024-04-24 11h44.41.351736 +0200,
./images_beh/Sphere_CW-3.75_BG-grey_stim-white.png,0,21,21,21,22.998822064022534,,,,,,,,,,22.959698430029675,23.04478995903628,23.04478995903628,23.81181328202365,23.791883033001795,23.992946754035074,None,0,,,,,sub-septest,ses-main,run-1,grey,2024-04-24_11h44.32.912,VDT,2023.2.3,121.0155098483288,2024-04-24 11h44.41.351736 +0200,
./images_beh/Sphere_CCW-3.75_BG-grey_stim-white.png,0,22,22,22,24.03914602904115,,,,,,,,,,23.993945877999067,24.058293398004025,24.058293398004025,24.799781343026552,24.799781343026552,25.0348077689996,None,0,,,,,sub-septest,ses-main,run-1,grey,2024-04-24_11h44.32.912,VDT,2023.2.3,121.0155098483288,2024-04-24 11h44.41.351736 +0200,
./images_beh/Sphere_Ref_BG-grey_stim-white.png,0,23,23,23,25.08530639501987,,,,,,,,,,25.03569448000053,25.08530639501987,25.08530639501987,25.800646128016524,25.833445783006027,25.980656563013326,['space'],0,,0.5275998180150054,None,,sub-septest,ses-main,run-1,grey,2024-04-24_11h44.32.912,VDT,2023.2.3,121.0155098483288,2024-04-24 11h44.41.351736 +0200,
./images_beh/Sphere_CW-3.75_BG-grey_stim-white.png,0,24,24,24,26.031723516003694,,,,,,,,,,25.981617166020442,26.04327419603942,26.04327419603942,26.81160631903913,26.79707586002769,27.00038757600123,None,0,,,,,sub-septest,ses-main,run-1,grey,2024-04-24_11h44.32.912,VDT,2023.2.3,121.0155098483288,2024-04-24 11h44.41.351736 +0200,
./images_beh/Sphere_CW-3.75_BG-grey_stim-white.png,0,25,25,25,27.046875883010216,,,,,,,,,,27.0010684109875,27.046875883010216,27.046875883010216,27.813250796985812,27.813250796985812,27.98513644404011,None,0,,,,,sub-septest,ses-main,run-1,grey,2024-04-24_11h44.32.912,VDT,2023.2.3,121.0155098483288,2024-04-24 11h44.41.351736 +0200,
./images_beh/Sphere_Ref_BG-grey_stim-white.png,0,26,26,26,28.033942787034903,,,,,,,,,,27.985871846030932,28.040820297028404,28.040820297028404,28.802393599995412,28.781622659997083,28.999305172997992,None,0,,,,,sub-septest,ses-main,run-1,grey,2024-04-24_11h44.32.912,VDT,2023.2.3,121.0155098483288,2024-04-24 11h44.41.351736 +0200,
./images_beh/Sphere_CW-3.75_BG-grey_stim-white.png,0,27,27,27,29.05241752101574,,,,,,,,,,29.000022802036256,29.05241752101574,29.05241752101574,29.79454752500169,29.802052968007047,29.97448696801439,None,0,,,,,sub-septest,ses-main,run-1,grey,2024-04-24_11h44.32.912,VDT,2023.2.3,121.0155098483288,2024-04-24 11h44.41.351736 +0200,
./images_beh/Sphere_CW-3.75_BG-grey_stim-white.png,0,28,28,28,30.021362577041145,,,,,,,,,,29.975279651989695,30.04798109899275,30.04798109899275,30.792419542034622,30.792419542034622,31.0158537219977,None,0,,,,,sub-septest,ses-main,run-1,grey,2024-04-24_11h44.32.912,VDT,2023.2.3,121.0155098483288,2024-04-24 11h44.41.351736 +0200,
./images_beh/Sphere_CCW-3.75_BG-grey_stim-white.png,0,29,29,29,31.059824783995282,,,,,,,,,,31.01647959201364,31.059824783995282,31.059824783995282,31.792221423995215,31.800505574035924,31.991545204014983,None,0,,,,,sub-septest,ses-main,run-1,grey,2024-04-24_11h44.32.912,VDT,2023.2.3,121.0155098483288,2024-04-24 11h44.41.351736 +0200,
./images_beh/Sphere_Ref_BG-grey_stim-white.png,0,30,30,30,32.03657126100734,,,,,,,,,,31.992111719038803,32.04647317802301,32.04647317802301,32.80539494904224,32.80539494904224,32.97385586804012,None,0,,,,,sub-septest,ses-main,run-1,grey,2024-04-24_11h44.32.912,VDT,2023.2.3,121.0155098483288,2024-04-24 11h44.41.351736 +0200,
./images_beh/Sphere_CW-3.75_BG-grey_stim-white.png,0,31,31,31,33.01787284103921,,,,,,,,,,32.97430387703935,33.04788392101182,33.04788392101182,33.79054511198774,33.79054511198774,33.99783892399864,None,0,,,,,sub-septest,ses-main,run-1,grey,2024-04-24_11h44.32.912,VDT,2023.2.3,121.0155098483288,2024-04-24 11h44.41.351736 +0200,
./images_beh/Sphere_CCW-3.75_BG-grey_stim-white.png,0,32,32,32,34.039539187040646,,,,,,,,,,33.99833592004143,34.039539187040646,34.039539187040646,34.797255959012546,34.779586746997666,34.95862541301176,None,0,,,,,sub-septest,ses-main,run-1,grey,2024-04-24_11h44.32.912,VDT,2023.2.3,121.0155098483288,2024-04-24 11h44.41.351736 +0200,
./images_beh/Sphere_Ref_BG-grey_stim-white.png,0,33,33,33,35.00487394299125,,,,,,,,,,34.95934853499057,35.04734582803212,35.04734582803212,35.790553773986176,35.790553773986176,35.998283239023294,None,0,,,,,sub-septest,ses-main,run-1,grey,2024-04-24_11h44.32.912,VDT,2023.2.3,121.0155098483288,2024-04-24 11h44.41.351736 +0200,
./images_beh/Sphere_CW-3.75_BG-grey_stim-white.png,0,34,34,34,36.05204132501967,,,,,,,,,,35.99904443300329,36.05204132501967,36.05204132501967,36.794086596986745,36.805203836003784,37.039791469986085,None,0,,,,,sub-septest,ses-main,run-1,grey,2024-04-24_11h44.32.912,VDT,2023.2.3,121.0155098483288,2024-04-24 11h44.41.351736 +0200,
./images_beh/Sphere_CCW-3.75_BG-grey_stim-white.png,0,35,35,35,37.093298087012954,,,,,,,,,,37.04089743999066,37.093298087012954,37.093298087012954,37.78911670099478,37.837814616039395,37.98869884799933,None,0,,,,,sub-septest,ses-main,run-1,grey,2024-04-24_11h44.32.912,VDT,2023.2.3,121.0155098483288,2024-04-24 11h44.41.351736 +0200,
./images_beh/Sphere_CCW-3.75_BG-grey_stim-white.png,0,36,36,36,38.03056359599577,,,,,,,,,,37.989578351029195,38.037692070996854,38.037692070996854,38.79784082900733,38.77904550899984,38.988991755002644,None,0,,,,,sub-septest,ses-main,run-1,grey,2024-04-24_11h44.32.912,VDT,2023.2.3,121.0155098483288,2024-04-24 11h44.41.351736 +0200,
./images_beh/Sphere_CW-3.75_BG-grey_stim-white.png,0,37,37,37,39.036121437035035,,,,,,,,,,38.98998924001353,39.04430480103474,39.04430480103474,39.795126707002055,39.7873692639987,39.97141870803898,None,0,,,,,sub-septest,ses-main,run-1,grey,2024-04-24_11h44.32.912,VDT,2023.2.3,121.0155098483288,2024-04-24 11h44.41.351736 +0200,
./images_beh/Sphere_CW-3.75_BG-grey_stim-white.png,0,38,38,38,40.01842762902379,,,,,,,,,,39.9722579770023,40.04587248101598,40.04587248101598,40.789905114041176,40.789905114041176,41.01413822500035,None,0,,,,,sub-septest,ses-main,run-1,grey,2024-04-24_11h44.32.912,VDT,2023.2.3,121.0155098483288,2024-04-24 11h44.41.351736 +0200,
./images_beh/Sphere_CCW-3.75_BG-grey_stim-white.png,0,39,39,39,41.058919102011714,,,,,,,,,,41.01458151004044,41.058919102011714,41.058919102011714,41.79611074604327,41.806136602011975,41.98801403504331,None,0,,,,,sub-septest,ses-main,run-1,grey,2024-04-24_11h44.32.912,VDT,2023.2.3,121.0155098483288,2024-04-24 11h44.41.351736 +0200,
./images_beh/Sphere_Ref_BG-grey_stim-white.png,0,40,40,40,42.03636044403538,,,,,,,,,,41.98886359098833,42.04536313400604,42.04536313400604,42.794470971042756,42.78621173702413,42.97827203001361,None,0,,,,,sub-septest,ses-main,run-1,grey,2024-04-24_11h44.32.912,VDT,2023.2.3,121.0155098483288,2024-04-24 11h44.41.351736 +0200,
./images_beh/Sphere_CCW-3.75_BG-grey_stim-white.png,0,41,41,41,43.02125906100264,,,,,,,,,,42.97871814999962,43.04480503499508,43.04480503499508,43.79476575204171,43.79476575204171,43.98627783800475,None,0,,,,,sub-septest,ses-main,run-1,grey,2024-04-24_11h44.32.912,VDT,2023.2.3,121.0155098483288,2024-04-24 11h44.41.351736 +0200,
./images_beh/Sphere_CCW-3.75_BG-grey_stim-white.png,0,42,42,42,44.022836780000944,,,,,,,,,,43.98668028804241,44.04482894198736,44.04482894198736,44.79430573701393,44.78610732400557,45.014363905007485,None,0,,,,,sub-septest,ses-main,run-1,grey,2024-04-24_11h44.32.912,VDT,2023.2.3,121.0155098483288,2024-04-24 11h44.41.351736 +0200,
./images_beh/Sphere_Ref_BG-grey_stim-white.png,0,43,43,43,45.06851643999107,,,,,,,,,,45.01545354898553,45.06851643999107,45.06851643999107,45.795688085025176,45.81354779598769,45.986734240024816,None,0,,,,,sub-septest,ses-main,run-1,grey,2024-04-24_11h44.32.912,VDT,2023.2.3,121.0155098483288,2024-04-24 11h44.41.351736 +0200,
./images_beh/Sphere_CW-3.75_BG-grey_stim-white.png,0,44,44,44,46.030683349992614,,,,,,,,,,45.987677770026494,46.03723432903644,46.03723432903644,46.792960625025444,46.77645010803826,46.96957212401321,None,0,,,,,sub-septest,ses-main,run-1,grey,2024-04-24_11h44.32.912,VDT,2023.2.3,121.0155098483288,2024-04-24 11h44.41.351736 +0200,
./images_beh/Sphere_CW-3.75_BG-grey_stim-white.png,0,45,45,45,47.00588726403657,,,,,,,,,,46.969964010990225,47.04332650301512,47.04332650301512,47.78985806502169,47.78985806502169,48.03851455298718,None,0,48.03745689202333,,,,sub-septest,ses-main,run-1,grey,2024-04-24_11h44.32.912,VDT,2023.2.3,121.0155098483288,2024-04-24 11h44.41.351736 +0200,
./images_beh/Sphere_CW-3.75_BG-grey_stim-white.png,0,46,46,46,48.089994104986545,,,,,,,,,,48.0392346259905,48.089994104986545,48.089994104986545,48.79372637299821,48.85039915202651,49.026274659030605,None,0,,,,,sub-septest,ses-main,run-1,grey,2024-04-24_11h44.32.912,VDT,2023.2.3,121.0155098483288,2024-04-24 11h44.41.351736 +0200,
./images_beh/Sphere_Ref_BG-grey_stim-white.png,0,47,47,47,49.06975074199727,,,,,,,,,,49.02677722100634,49.06975074199727,49.06975074199727,49.7948645449942,49.811531288025435,50.0371684859856,None,0,50.036325375025626,,,,sub-septest,ses-main,run-1,grey,2024-04-24_11h44.32.912,VDT,2023.2.3,121.0155098483288,2024-04-24 11h44.41.351736 +0200,
./images_beh/Sphere_CW-3.75_BG-grey_stim-white.png,0,48,48,48,50.085828125011176,,,,,,,,,,50.03789070999483,50.085828125011176,50.085828125011176,50.79293942998629,50.825970706006046,50.986748179013375,None,0,,,,,sub-septest,ses-main,run-1,grey,2024-04-24_11h44.32.912,VDT,2023.2.3,121.0155098483288,2024-04-24 11h44.41.351736 +0200,
./images_beh/Sphere_CCW-3.75_BG-grey_stim-white.png,0,49,49,49,51.029958244005684,,,,,,,,,,50.98736661701696,51.04265583003871,51.04265583003871,51.79203166201478,51.784305846027564,52.00182830699487,None,0,,,,,sub-septest,ses-main,run-1,grey,2024-04-24_11h44.32.912,VDT,2023.2.3,121.0155098483288,2024-04-24 11h44.41.351736 +0200,
./images_beh/Sphere_Ref_BG-grey_stim-white.png,0,50,50,50,52.037422571040224,,,,,,,,,,52.00254082301399,52.05072402901715,52.05072402901715,52.79162252903916,52.79162252903916,53.04241528303828,None,0,53.03430291701807,,,53.04109827103093,sub-septest,ses-main,run-1,grey,2024-04-24_11h44.32.912,VDT,2023.2.3,121.0155098483288,2024-04-24 11h44.41.351736 +0200,
./images_beh/Sphere_CW-3.75_BG-grey_stim-white.png,0,51,51,51,53.09077305701794,,,,,,,,,,53.04301632102579,53.09077305701794,53.09077305701794,53.794733830029145,53.83348432398634,54.025433528004214,None,0,,,,,sub-septest,ses-main,run-1,grey,2024-04-24_11h44.32.912,VDT,2023.2.3,121.0155098483288,2024-04-24 11h44.41.351736 +0200,
./images_beh/Sphere_CCW-3.75_BG-grey_stim-white.png,0,52,52,52,54.07294870499754,,,,,,,,,,54.026152793026995,54.07294870499754,54.07294870499754,54.791848808992654,54.81913146999432,54.98405163001735,None,0,,,,,sub-septest,ses-main,run-1,grey,2024-04-24_11h44.32.912,VDT,2023.2.3,121.0155098483288,2024-04-24 11h44.41.351736 +0200,
./images_beh/Sphere_CCW-3.75_BG-grey_stim-white.png,0,53,53,53,55.03127592999954,,,,,,,,,,54.984738251019735,55.03840376302833,55.03840376302833,55.79077857203083,55.783132640004624,56.02468745002989,None,0,,,,,sub-septest,ses-main,run-1,grey,2024-04-24_11h44.32.912,VDT,2023.2.3,121.0155098483288,2024-04-24 11h44.41.351736 +0200,
./images_beh/Sphere_CW-3.75_BG-grey_stim-white.png,0,54,54,54,56.07263598503778,,,,,,,,,,56.02527122403262,56.07263598503778,56.07263598503778,56.792452636989765,56.82161248900229,56.98403818003135,None,0,,,,,sub-septest,ses-main,run-1,grey,2024-04-24_11h44.32.912,VDT,2023.2.3,121.0155098483288,2024-04-24 11h44.41.351736 +0200,
./images_beh/Sphere_CCW-3.75_BG-grey_stim-white.png,0,55,55,55,57.02490389003651,,,,,,,,,,56.98447417002171,57.04023604799295,57.04023604799295,57.79053187300451,57.782590252987575,57.95798338804161,None,0,,,,,sub-septest,ses-main,run-1,grey,2024-04-24_11h44.32.912,VDT,2023.2.3,121.0155098483288,2024-04-24 11h44.41.351736 +0200,
./images_beh/Sphere_Ref_BG-grey_stim-white.png,0,56,56,56,58.00980734603945,,,,,,,,,,57.95870143698994,58.03982981602894,58.03982981602894,58.790067818015814,58.782123882032465,58.97350096004084,None,0,,,,,sub-septest,ses-main,run-1,grey,2024-04-24_11h44.32.912,VDT,2023.2.3,121.0155098483288,2024-04-24 11h44.41.351736 +0200,
./images_beh/Sphere_CCW-3.75_BG-grey_stim-white.png,0,57,57,57,59.01740179001354,,,,,,,,,,58.97401003300911,59.03911939600948,59.03911939600948,59.78952590998961,59.78952590998961,59.967067680030596,None,0,,,,,sub-septest,ses-main,run-1,grey,2024-04-24_11h44.32.912,VDT,2023.2.3,121.0155098483288,2024-04-24 11h44.41.351736 +0200,
./images_beh/Sphere_CCW-3.75_BG-grey_stim-white.png,0,58,58,58,60.00969328399515,,,,,,,,,,59.967507585010026,60.03912172000855,60.03912172000855,60.78870401601307,60.781243592035025,60.98331839899765,None,0,,,,,sub-septest,ses-main,run-1,grey,2024-04-24_11h44.32.912,VDT,2023.2.3,121.0155098483288,2024-04-24 11h44.41.351736 +0200,
./images_beh/Sphere_Ref_BG-grey_stim-white.png,0,59,59,59,61.034047803026624,,,,,,,,,,60.98395792901283,61.04819761402905,61.04819761402905,61.78908576403046,61.78908576403046,61.96572359104175,None,0,,,,,sub-septest,ses-main,run-1,grey,2024-04-24_11h44.32.912,VDT,2023.2.3,121.0155098483288,2024-04-24 11h44.41.351736 +0200,
./images_beh/Sphere_CCW-3.75_BG-grey_stim-white.png,0,60,60,60,62.013022551022004,,,,,,,,,,61.9664955890039,62.03850452101324,62.03850452101324,62.78918933798559,62.78102261503227,62.982510616013315,None,0,,,,,sub-septest,ses-main,run-1,grey,2024-04-24_11h44.32.912,VDT,2023.2.3,121.0155098483288,2024-04-24 11h44.41.351736 +0200,
./images_beh/Sphere_CW-3.75_BG-grey_stim-white.png,0,61,61,61,63.03046237002127,,,,,,,,,,62.983483941003215,63.03759834100492,63.03759834100492,63.788163611025084,63.788163611025084,63.98181264399318,None,0,,,,,sub-septest,ses-main,run-1,grey,2024-04-24_11h44.32.912,VDT,2023.2.3,121.0155098483288,2024-04-24 11h44.41.351736 +0200,
./images_beh/Sphere_CCW-3.75_BG-grey_stim-white.png,0,62,62,62,64.02810405701166,,,,,,,,,,63.98261788900709,64.04751895501977,64.04751895501977,64.79754059703555,64.79754059703555,64.95876752899494,None,0,,,,,sub-septest,ses-main,run-1,grey,2024-04-24_11h44.32.912,VDT,2023.2.3,121.0155098483288,2024-04-24 11h44.41.351736 +0200,
./images_beh/Sphere_CW-3.75_BG-grey_stim-white.png,0,63,63,63,64.99634168302873,,,,,,,,,,64.95939314103452,65.04715019703144,65.04715019703144,65.78769210202154,65.78769210202154,66.01718104799511,None,0,,,,,sub-septest,ses-main,run-1,grey,2024-04-24_11h44.32.912,VDT,2023.2.3,121.0155098483288,2024-04-24 11h44.41.351736 +0200,
./images_beh/Sphere_CW-3.75_BG-grey_stim-white.png,0,64,64,64,66.06230494001647,,,,,,,,,,66.01782113598892,66.06230494001647,66.06230494001647,66.79820615198696,66.8059848260018,67.02255614701426,None,0,,,,,sub-septest,ses-main,run-1,grey,2024-04-24_11h44.32.912,VDT,2023.2.3,121.0155098483288,2024-04-24 11h44.41.351736 +0200,
./images_beh/Sphere_Ref_BG-grey_stim-white.png,0,65,65,65,67.06458818301326,,,,,,,,,,67.02305969002191,67.06458818301326,67.06458818301326,67.79618419898907,67.8156860889867,67.98816657601856,None,0,,,,,sub-septest,ses-main,run-1,grey,2024-04-24_11h44.32.912,VDT,2023.2.3,121.0155098483288,2024-04-24 11h44.41.351736 +0200,
./images_beh/Sphere_CW-3.75_BG-grey_stim-white.png,0,66,66,66,68.03454370499821,,,,,,,,,,67.98876156500774,68.04692008398706,68.04692008398706,68.78779261599993,68.78779261599993,68.98733929300215,None,0,,,,,sub-septest,ses-main,run-1,grey,2024-04-24_11h44.32.912,VDT,2023.2.3,121.0155098483288,2024-04-24 11h44.41.351736 +0200,
./images_beh/Sphere_CCW-3.75_BG-grey_stim-white.png,0,67,67,67,69.02858327602735,,,,,,,,,,68.98778706399025,69.045882319042,69.045882319042,69.7961113860365,69.7854413120076,69.99079786002403,None,0,,,,,sub-septest,ses-main,run-1,grey,2024-04-24_11h44.32.912,VDT,2023.2.3,121.0155098483288,2024-04-24 11h44.41.351736 +0200,
./images_beh/Sphere_CW-3.75_BG-grey_stim-white.png,0,68,68,68,70.04299500602065,,,,,,,,,,69.99174184299773,70.04990659898613,70.04990659898613,70.79721670603612,70.79721670603612,70.98150768800406,None,0,,,,,sub-septest,ses-main,run-1,grey,2024-04-24_11h44.32.912,VDT,2023.2.3,121.0155098483288,2024-04-24 11h44.41.351736 +0200,
./images_beh/Sphere_Ref_BG-grey_stim-white.png,0,69,69,69,71.02283081499627,,,,,,,,,,70.9824108830071,71.04519537102897,71.04519537102897,71.79494736599736,71.7841951380251,71.98076734202914,None,0,,,,,sub-septest,ses-main,run-1,grey,2024-04-24_11h44.32.912,VDT,2023.2.3,121.0155098483288,2024-04-24 11h44.41.351736 +0200,
./images_beh/Sphere_CW-3.75_BG-grey_stim-white.png,0,70,70,70,72.02643953100778,,,,,,,,,,71.98135939904023,72.04506849101745,72.04506849101745,72.79487288900418,72.78468114003772,72.98093182902085,None,0,,,,,sub-septest,ses-main,run-1,grey,2024-04-24_11h44.32.912,VDT,2023.2.3,121.0155098483288,2024-04-24 11h44.41.351736 +0200,
./images_beh/Sphere_CCW-3.75_BG-grey_stim-white.png,0,71,71,71,73.0310834160191,,,,,,,,,,72.98152252403088,73.04558696999447,73.04558696999447,73.79447858198546,73.78445847000694,73.96245583699783,None,0,,,,,sub-septest,ses-main,run-1,grey,2024-04-24_11h44.32.912,VDT,2023.2.3,121.0155098483288,2024-04-24 11h44.41.351736 +0200,
./images_beh/Sphere_CCW-3.75_BG-grey_stim-white.png,0,72,72,72,74.0077306930325,,,,,,,,,,73.96494881302351,74.04538956703618,74.04538956703618,74.7945969059947,74.78444614203181,75.00381986203138,None,0,,,,,sub-septest,ses-main,run-1,grey,2024-04-24_11h44.32.912,VDT,2023.2.3,121.0155098483288,2024-04-24 11h44.41.351736 +0200,
./images_beh/Sphere_CCW-3.75_BG-grey_stim-white.png,0,73,73,73,75.04953190102242,,,,,,,,,,75.00434276799206,75.04953190102242,75.04953190102242,75.79434220399708,75.79434220399708,75.96263571700547,None,0,,,,,sub-septest,ses-main,run-1,grey,2024-04-24_11h44.32.912,VDT,2023.2.3,121.0155098483288,2024-04-24 11h44.41.351736 +0200,
./images_beh/Sphere_CW-3.75_BG-grey_stim-white.png,0,74,74,74,76.01318269700278,,,,,,,,,,75.96343004202936,76.04421522602206,76.04421522602206,76.793741572008,76.78351471404312,76.98482117900858,None,0,,,,,sub-septest,ses-main,run-1,grey,2024-04-24_11h44.32.912,VDT,2023.2.3,121.0155098483288,2024-04-24 11h44.41.351736 +0200,
./images_beh/Sphere_CCW-3.75_BG-grey_stim-white.png,0,75,75,75,77.02944153599674,,,,,,,,,,76.98513653501868,77.05197836103616,77.05197836103616,77.79365765600232,77.80144926998764,77.97854684700724,None,0,,,,,sub-septest,ses-main,run-1,grey,2024-04-24_11h44.32.912,VDT,2023.2.3,121.0155098483288,2024-04-24 11h44.41.351736 +0200,
./images_beh/Sphere_CW-3.75_BG-grey_stim-white.png,0,76,76,76,78.03423146001296,,,,,,,,,,77.97914315800881,78.0443448460428,78.0443448460428,78.80201324902009,78.79344075702829,78.99383475602372,None,0,,,,,sub-septest,ses-main,run-1,grey,2024-04-24_11h44.32.912,VDT,2023.2.3,121.0155098483288,2024-04-24 11h44.41.351736 +0200,
./images_beh/Sphere_Ref_BG-grey_stim-white.png,0,77,77,77,79.03548140602652,,,,,,,,,,78.99422742199386,79.0451589699951,79.0451589699951,79.79322087799665,79.79322087799665,79.982667245029,None,0,,,,,sub-septest,ses-main,run-1,grey,2024-04-24_11h44.32.912,VDT,2023.2.3,121.0155098483288,2024-04-24 11h44.41.351736 +0200,
./images_beh/Sphere_CW-3.75_BG-grey_stim-white.png,0,78,78,78,80.02751783403801,,,,,,,,,,79.98316990601597,80.05054506403394,80.05054506403394,80.8117171599879,80.8117171599879,80.97997219802346,None,0,,,,,sub-septest,ses-main,run-1,grey,2024-04-24_11h44.32.912,VDT,2023.2.3,121.0155098483288,2024-04-24 11h44.41.351736 +0200,
./images_beh/Sphere_CCW-3.75_BG-grey_stim-white.png,0,79,79,79,81.02938232303131,,,,,,,,,,80.98073045199271,81.0499929439975,81.0499929439975,81.81168689002516,81.81168689002516,81.96389851300046,None,0,,,,,sub-septest,ses-main,run-1,grey,2024-04-24_11h44.32.912,VDT,2023.2.3,121.0155098483288,2024-04-24 11h44.41.351736 +0200,
./images_beh/Sphere_Ref_BG-grey_stim-white.png,0,80,80,80,82.01118313899497,,,,,,,,,,81.96457469998859,82.04987875599181,82.04987875599181,82.81165016902378,82.81165016902378,83.00241671904223,None,0,,,,,sub-septest,ses-main,run-1,grey,2024-04-24_11h44.32.912,VDT,2023.2.3,121.0155098483288,2024-04-24 11h44.41.351736 +0200,
./images_beh/Sphere_CW-3.75_BG-grey_stim-white.png,0,81,81,81,83.05421000800561,,,,,,,,,,83.00352385500446,83.05421000800561,83.05421000800561,83.80136421503266,83.80136421503266,83.95978999102954,None,0,,,,,sub-septest,ses-main,run-1,grey,2024-04-24_11h44.32.912,VDT,2023.2.3,121.0155098483288,2024-04-24 11h44.41.351736 +0200,
./images_beh/Sphere_CW-3.75_BG-grey_stim-white.png,0,82,82,82,84.01350263901986,,,,,,,,,,83.9608579830383,84.04352748399833,84.04352748399833,84.80133006902179,84.79214236699045,85.02711470599752,None,0,,,,,sub-septest,ses-main,run-1,grey,2024-04-24_11h44.32.912,VDT,2023.2.3,121.0155098483288,2024-04-24 11h44.41.351736 +0200,
./images_beh/Sphere_Ref_BG-grey_stim-white.png,0,83,83,83,85.07170461403439,,,,,,,,,,85.02762052998878,85.07170461403439,85.07170461403439,85.80164700304158,85.84496719401795,86.02875065803528,None,0,,,,,sub-septest,ses-main,run-1,grey,2024-04-24_11h44.32.912,VDT,2023.2.3,121.0155098483288,2024-04-24 11h44.41.351736 +0200,
./images_beh/Sphere_CCW-3.75_BG-grey_stim-white.png,0,84,84,84,86.08307302300818,,,,,,,,,,86.02949687000364,86.08307302300818,86.08307302300818,86.8014852500055,86.84595042699948,87.046508533007,None,0,,,,,sub-septest,ses-main,run-1,grey,2024-04-24_11h44.32.912,VDT,2023.2.3,121.0155098483288,2024-04-24 11h44.41.351736 +0200,
./images_beh/Sphere_CW-3.75_BG-grey_stim-white.png,0,85,85,85,87.10065900703194,,,,,,,,,,87.04725349001819,87.10065900703194,87.10065900703194,87.80092569702538,87.85771911998745,87.95971963601187,None,0,,,,,sub-septest,ses-main,run-1,grey,2024-04-24_11h44.32.912,VDT,2023.2.3,121.0155098483288,2024-04-24 11h44.41.351736 +0200,
./images_beh/Sphere_Ref_BG-grey_stim-white.png,0,86,86,86,88.00215230800677,,,,,,,,,,87.9601591330138,88.057770962012,88.057770962012,88.86531030299375,88.86531030299375,89.0279549480183,None,0,,,,,sub-septest,ses-main,run-1,grey,2024-04-24_11h44.32.912,VDT,2023.2.3,121.0155098483288,2024-04-24 11h44.41.351736 +0200,
./images_beh/Sphere_CW-3.75_BG-grey_stim-white.png,0,87,87,87,89.07184933003737,,,,,,,,,,89.02824139699806,89.07184933003737,89.07184933003737,89.8012759310077,89.845679132035,89.96313815598842,None,0,,,,,sub-septest,ses-main,run-1,grey,2024-04-24_11h44.32.912,VDT,2023.2.3,121.0155098483288,2024-04-24 11h44.41.351736 +0200,
./images_beh/Sphere_CCW-3.75_BG-grey_stim-white.png,0,88,88,88,90.00416544801556,,,,,,,,,,89.96358072402654,90.05695063900203,90.05695063900203,90.79921459802426,90.79921459802426,90.96750092203729,None,0,,,,,sub-septest,ses-main,run-1,grey,2024-04-24_11h44.32.912,VDT,2023.2.3,121.0155098483288,2024-04-24 11h44.41.351736 +0200,
./images_beh/Sphere_CCW-3.75_BG-grey_stim-white.png,0,89,89,89,91.0113037560368,,,,,,,,,,90.96800147299655,91.05717151804129,91.05717151804129,91.81824421003694,91.81824421003694,92.04593634099001,None,0,,,,,sub-septest,ses-main,run-1,grey,2024-04-24_11h44.32.912,VDT,2023.2.3,121.0155098483288,2024-04-24 11h44.41.351736 +0200,
./images_beh/Sphere_CCW-3.75_BG-grey_stim-white.png,0,90,90,90,92.10001021699281,,,,,,,,,,92.04666044702753,92.10001021699281,92.10001021699281,92.79211962298723,92.85894226504024,93.05885313200997,None,0,93.03990284301108,,,,sub-septest,ses-main,run-1,grey,2024-04-24_11h44.32.912,VDT,2023.2.3,121.0155098483288,2024-04-24 11h44.41.351736 +0200,
./images_beh/Sphere_CCW-3.75_BG-grey_stim-white.png,0,91,91,91,93.1044828480226,,,,,,,,,,93.05936669401126,93.1044828480226,93.1044828480226,93.78921700199135,93.85618438903475,93.98374446498929,None,0,,,,,sub-septest,ses-main,run-1,grey,2024-04-24_11h44.32.912,VDT,2023.2.3,121.0155098483288,2024-04-24 11h44.41.351736 +0200,
./images_beh/Sphere_CW-3.75_BG-grey_stim-white.png,0,92,92,92,94.02502373699099,,,,,,,,,,93.98425414500525,94.04822852503275,94.04822852503275,94.79040150501532,94.7980517920223,94.98171639302745,None,0,,,,,sub-septest,ses-main,run-1,grey,2024-04-24_11h44.32.912,VDT,2023.2.3,121.0155098483288,2024-04-24 11h44.41.351736 +0200,
./images_beh/Sphere_CW-3.75_BG-grey_stim-white.png,0,93,93,93,95.02774014300667,,,,,,,,,,94.98243793600705,95.04677664500196,95.04677664500196,95.79122652800288,95.79122652800288,95.96643724403111,None,0,,,,,sub-septest,ses-main,run-1,grey,2024-04-24_11h44.32.912,VDT,2023.2.3,121.0155098483288,2024-04-24 11h44.41.351736 +0200,
./images_beh/Sphere_Ref_BG-grey_stim-white.png,0,94,94,94,96.01957747898996,,,,,,,,,,95.96755502402084,96.04690747603308,96.04690747603308,96.8083473329898,96.8083473329898,96.98039260902442,None,0,,,,,sub-septest,ses-main,run-1,grey,2024-04-24_11h44.32.912,VDT,2023.2.3,121.0155098483288,2024-04-24 11h44.41.351736 +0200,
./images_beh/Sphere_CCW-3.75_BG-grey_stim-white.png,0,95,95,95,97.028755893989,,,,,,,,,,96.98098236002261,97.04637215001276,97.04637215001276,97.7966783780139,97.78812957502669,97.98002823302522,None,0,,,,,sub-septest,ses-main,run-1,grey,2024-04-24_11h44.32.912,VDT,2023.2.3,121.0155098483288,2024-04-24 11h44.41.351736 +0200,
./images_beh/Sphere_CW-3.75_BG-grey_stim-white.png,0,96,96,96,98.02604139404139,,,,,,,,,,97.98062478302745,98.04634956800146,98.04634956800146,98.78816525702132,98.78816525702132,99.02237665402936,None,0,,,,,sub-septest,ses-main,run-1,grey,2024-04-24_11h44.32.912,VDT,2023.2.3,121.0155098483288,2024-04-24 11h44.41.351736 +0200,
./images_beh/Sphere_Ref_BG-grey_stim-white.png,0,97,97,97,99.0658555169939,,,,,,,,,,99.02286984503735,99.0658555169939,99.0658555169939,99.79697957000462,99.821101567999,99.97261692304164,None,0,,,,,sub-septest,ses-main,run-1,grey,2024-04-24_11h44.32.912,VDT,2023.2.3,121.0155098483288,2024-04-24 11h44.41.351736 +0200,
./images_beh/Sphere_CCW-3.75_BG-grey_stim-white.png,0,98,98,98,100.02518263400998,,,,,,,,,,99.97346530400682,100.04489767603809,100.04489767603809,100.79279705003137,100.79279705003137,101.01311852200888,None,0,,,,,sub-septest,ses-main,run-1,grey,2024-04-24_11h44.32.912,VDT,2023.2.3,121.0155098483288,2024-04-24 11h44.41.351736 +0200,
./images_beh/Sphere_CW-3.75_BG-grey_stim-white.png,0,99,99,99,101.04728405398782,,,,,,,,,,101.0134148710058,101.05692360503599,101.05692360503599,101.7958112230408,101.80377201898955,101.96346767101204,None,0,,,,,sub-septest,ses-main,run-1,grey,2024-04-24_11h44.32.912,VDT,2023.2.3,121.0155098483288,2024-04-24 11h44.41.351736 +0200,
./images_beh/Sphere_Ref_BG-grey_stim-white.png,0,100,100,100,102.00540323299356,,,,,,,,,,101.96406475803815,102.04525929503143,102.04525929503143,102.79498172801686,102.78724350302946,102.9624174220371,None,0,,,,,sub-septest,ses-main,run-1,grey,2024-04-24_11h44.32.912,VDT,2023.2.3,121.0155098483288,2024-04-24 11h44.41.351736 +0200,
./images_beh/Sphere_CCW-3.75_BG-grey_stim-white.png,0,101,101,101,102.99828775698552,,,,,,,,,,102.96294766501524,103.04514178499812,103.04514178499812,103.79501526401145,103.78691898199031,104.02154539502226,None,0,,,,,sub-septest,ses-main,run-1,grey,2024-04-24_11h44.32.912,VDT,2023.2.3,121.0155098483288,2024-04-24 11h44.41.351736 +0200,
./images_beh/Sphere_CW-3.75_BG-grey_stim-white.png,0,102,102,102,104.06654382601846,,,,,,,,,,104.0223048630287,104.06654382601846,104.06654382601846,104.79531567700906,104.81436599802691,104.97874822601443,None,0,,,,,sub-septest,ses-main,run-1,grey,2024-04-24_11h44.32.912,VDT,2023.2.3,121.0155098483288,2024-04-24 11h44.41.351736 +0200,
./images_beh/Sphere_CW-3.75_BG-grey_stim-white.png,0,103,103,103,105.02660805900814,,,,,,,,,,104.97924783901544,105.044793218025,105.044793218025,105.79481709899846,105.78617390699219,105.97042775299633,None,0,,,,,sub-septest,ses-main,run-1,grey,2024-04-24_11h44.32.912,VDT,2023.2.3,121.0155098483288,2024-04-24 11h44.41.351736 +0200,
./images_beh/Sphere_CW-3.75_BG-grey_stim-white.png,0,104,104,104,106.01925236103125,,,,,,,,,,105.97136384999612,106.04357789398637,106.04357789398637,106.80334237701027,106.80334237701027,107.07666677504312,None,0,107.0530792750069,,,107.0530792750069,sub-septest,ses-main,run-1,grey,2024-04-24_11h44.32.912,VDT,2023.2.3,121.0155098483288,2024-04-24 11h44.41.351736 +0200,
./images_beh/Sphere_Ref_BG-grey_stim-white.png,0,105,105,105,107.12524078204297,,,,,,,,,,107.07727264100686,107.12524078204297,107.12524078204297,107.8025165090221,107.8858421620098,108.02213155600475,None,0,,,,,sub-septest,ses-main,run-1,grey,2024-04-24_11h44.32.912,VDT,2023.2.3,121.0155098483288,2024-04-24 11h44.41.351736 +0200,
./images_beh/Sphere_CCW-3.75_BG-grey_stim-white.png,0,106,106,106,108.0715477290214,,,,,,,,,,108.0227416990092,108.0715477290214,108.0715477290214,108.7939305990003,108.82200143299997,109.05996339902049,None,0,109.03550540300785,,,,sub-septest,ses-main,run-1,grey,2024-04-24_11h44.32.912,VDT,2023.2.3,121.0155098483288,2024-04-24 11h44.41.351736 +0200,
./images_beh/Sphere_CCW-3.75_BG-grey_stim-white.png,0,107,107,107,109.10369973501656,,,,,,,,,,109.06060642399825,109.10369973501656,109.10369973501656,109.795536309015,109.8465416909894,109.96925821498735,None,0,,,,,sub-septest,ses-main,run-1,grey,2024-04-24_11h44.32.912,VDT,2023.2.3,121.0155098483288,2024-04-24 11h44.41.351736 +0200,
./images_beh/Sphere_CW-3.75_BG-grey_stim-white.png,0,108,108,108,110.01705172803486,,,,,,,,,,109.96984481503023,110.0432578669861,110.0432578669861,110.79193259601016,110.7848006199929,111.0190394250094,None,0,,,,,sub-septest,ses-main,run-1,grey,2024-04-24_11h44.32.912,VDT,2023.2.3,121.0155098483288,2024-04-24 11h44.41.351736 +0200,
./images_beh/Sphere_CW-3.75_BG-grey_stim-white.png,0,109,109,109,111.07293710799422,,,,,,,,,,111.02037690003635,111.07293710799422,111.07293710799422,111.79436724004336,111.82270093099214,111.97903409198625,None,0,,,,,sub-septest,ses-main,run-1,grey,2024-04-24_11h44.32.912,VDT,2023.2.3,121.0155098483288,2024-04-24 11h44.41.351736 +0200,
./images_beh/Sphere_Ref_BG-grey_stim-white.png,0,110,110,110,112.02681716298684,,,,,,,,,,111.97962409601314,112.04187584703322,112.04187584703322,112.79190020100214,112.78441001102328,113.01111843599938,None,0,,,,,sub-septest,ses-main,run-1,grey,2024-04-24_11h44.32.912,VDT,2023.2.3,121.0155098483288,2024-04-24 11h44.41.351736 +0200,
./images_beh/Sphere_CCW-3.75_BG-grey_stim-white.png,0,111,111,111,113.06042272300692,,,,,,,,,,113.01171071198769,113.06042272300692,113.06042272300692,113.79586791002657,113.8187045220402,114.0437850439921,None,0,114.04312332504196,,,,sub-septest,ses-main,run-1,grey,2024-04-24_11h44.32.912,VDT,2023.2.3,121.0155098483288,2024-04-24 11h44.41.351736 +0200,
./images_beh/Sphere_CCW-3.75_BG-grey_stim-white.png,0,112,112,112,114.09375534200808,,,,,,,,,,114.04436131601688,114.09375534200808,114.09375534200808,114.79335299500963,114.83864597399952,115.00971138500609,None,0,,,,,sub-septest,ses-main,run-1,grey,2024-04-24_11h44.32.912,VDT,2023.2.3,121.0155098483288,2024-04-24 11h44.41.351736 +0200,
./images_beh/Sphere_Ref_BG-grey_stim-white.png,0,113,113,113,115.05696644901764,,,,,,,,,,115.01030127203558,115.05696644901764,115.05696644901764,115.79426473903004,115.80259969702456,115.9920059950091,None,0,,,,,sub-septest,ses-main,run-1,grey,2024-04-24_11h44.32.912,VDT,2023.2.3,121.0155098483288,2024-04-24 11h44.41.351736 +0200,
./images_beh/Sphere_CW-3.75_BG-grey_stim-white.png,0,114,114,114,116.04317145800451,,,,,,,,,,115.99273074202938,116.04973101202631,116.04973101202631,116.7909825629904,116.7909825629904,117.03430510900216,None,0,117.03323980799178,,,,sub-septest,ses-main,run-1,grey,2024-04-24_11h44.32.912,VDT,2023.2.3,121.0155098483288,2024-04-24 11h44.41.351736 +0200,
./images_beh/Sphere_CCW-3.75_BG-grey_stim-white.png,0,115,115,115,117.08037483401131,,,,,,,,,,117.03490484302165,117.08037483401131,117.08037483401131,117.79182622901862,117.82760852598585,117.9504231819883,None,0,,,,,sub-septest,ses-main,run-1,grey,2024-04-24_11h44.32.912,VDT,2023.2.3,121.0155098483288,2024-04-24 11h44.41.351736 +0200,
./images_beh/Sphere_Ref_BG-grey_stim-white.png,0,116,116,116,117.99410602200078,,,,,,,,,,117.95123942499049,118.04204813501565,118.04204813501565,118.78997951303609,118.7826537740184,118.96720442600781,None,0,,,,,sub-septest,ses-main,run-1,grey,2024-04-24_11h44.32.912,VDT,2023.2.3,121.0155098483288,2024-04-24 11h44.41.351736 +0200,
./images_beh/Sphere_CW-3.75_BG-grey_stim-white.png,0,117,117,117,119.01310334500158,,,,,,,,,,118.96773545403266,119.03946297900984,119.03946297900984,119.78979716298636,119.78257305501029,120.03356677398551,None,0,120.03259380802047,,,120.03259380802047,sub-septest,ses-main,run-1,grey,2024-04-24_11h44.32.912,VDT,2023.2.3,121.0155098483288,2024-04-24 11h44.41.351736 +0200,
./images_beh/Sphere_CW-3.75_BG-grey_stim-white.png,0,118,118,118,120.08467035903595,,,,,,,,,,120.03427778702462,120.08467035903595,120.08467035903595,120.79171745100757,120.83217823400628,120.9732319409959,None,0,,,,,sub-septest,ses-main,run-1,grey,2024-04-24_11h44.32.912,VDT,2023.2.3,121.0155098483288,2024-04-24 11h44.41.351736 +0200,
./images_beh/Sphere_CW-3.75_BG-grey_stim-white.png,0,119,119,119,121.01356705202488,,,,,,,,,,120.97388663998572,121.03965517599136,121.03965517599136,121.78917361499043,121.78200814902084,122.009818422026,None,0,,,,,sub-septest,ses-main,run-1,grey,2024-04-24_11h44.32.912,VDT,2023.2.3,121.0155098483288,2024-04-24 11h44.41.351736 +0200,
./images_beh/Sphere_Ref_BG-grey_stim-white.png,0,120,120,120,122.05796012200881,,,,,,,,,,122.01081370998872,122.05796012200881,122.05796012200881,122.79839972802438,122.80781058804132,122.96706646902021,None,0,,,,,sub-septest,ses-main,run-1,grey,2024-04-24_11h44.32.912,VDT,2023.2.3,121.0155098483288,2024-04-24 11h44.41.351736 +0200,
./images_beh/Sphere_CW-3.75_BG-grey_stim-white.png,0,121,121,121,123.01035622903146,,,,,,,,,,122.96758547303034,123.03909951401874,123.03909951401874,123.79827648203354,123.79827648203354,123.9670389710227,None,0,,,,,sub-septest,ses-main,run-1,grey,2024-04-24_11h44.32.912,VDT,2023.2.3,121.0155098483288,2024-04-24 11h44.41.351736 +0200,
./images_beh/Sphere_CCW-3.75_BG-grey_stim-white.png,0,122,122,122,124.01129261899041,,,,,,,,,,123.96754482801771,124.0480837210198,124.0480837210198,124.78821510699345,124.78821510699345,125.02333318901947,None,0,,,,,sub-septest,ses-main,run-1,grey,2024-04-24_11h44.32.912,VDT,2023.2.3,121.0155098483288,2024-04-24 11h44.41.351736 +0200,
./images_beh/Sphere_CCW-3.75_BG-grey_stim-white.png,0,123,123,123,125.06878606800456,,,,,,,,,,125.02400582004339,125.06878606800456,125.06878606800456,125.78955132100964,125.8157975160284,125.98106560000451,None,0,,,,,sub-septest,ses-main,run-1,grey,2024-04-24_11h44.32.912,VDT,2023.2.3,121.0155098483288,2024-04-24 11h44.41.351736 +0200,
./images_beh/Sphere_CCW-3.75_BG-grey_stim-white.png,0,124,124,124,126.02347095898585,,,,,,,,,,125.98196422099136,126.03810391802108,126.03810391802108,126.79746458603768,126.79746458603768,127.01922491099685,None,0,,,,,sub-septest,ses-main,run-1,grey,2024-04-24_11h44.32.912,VDT,2023.2.3,121.0155098483288,2024-04-24 11h44.41.351736 +0200,
./images_beh/Sphere_CCW-3.75_BG-grey_stim-white.png,0,125,125,125,127.06795420701383,,,,,,,,,,127.01984408299904,127.06795420701383,127.06795420701383,127.78935062204255,127.81803197000409,128.0168354830239,None,0,,,,,sub-septest,ses-main,run-1,grey,2024-04-24_11h44.32.912,VDT,2023.2.3,121.0155098483288,2024-04-24 11h44.41.351736 +0200,
./images_beh/Sphere_CCW-3.75_BG-grey_stim-white.png,0,126,126,126,128.06075635302113,,,,,,,,,,128.01735564001137,128.06075635302113,128.06075635302113,128.7892435080139,128.80729294504272,129.00915797101334,None,0,,,,,sub-septest,ses-main,run-1,grey,2024-04-24_11h44.32.912,VDT,2023.2.3,121.0155098483288,2024-04-24 11h44.41.351736 +0200,
./images_beh/Sphere_CW-3.75_BG-grey_stim-white.png,0,127,127,127,129.05997225799365,,,,,,,,,,129.00984038802562,129.05997225799365,129.05997225799365,129.79626784700667,129.80429412500234,130.0473645820166,None,0,130.03641977900406,,,,sub-septest,ses-main,run-1,grey,2024-04-24_11h44.32.912,VDT,2023.2.3,121.0155098483288,2024-04-24 11h44.41.351736 +0200,
./images_beh/Sphere_Ref_BG-grey_stim-white.png,0,128,128,128,130.09897392999846,,,,,,,,,,130.04819807701278,130.09897392999846,130.09897392999846,130.79576723102946,130.84614804101875,130.96442560100695,None,0,,,,,sub-septest,ses-main,run-1,grey,2024-04-24_11h44.32.912,VDT,2023.2.3,121.0155098483288,2024-04-24 11h44.41.351736 +0200,
./images_beh/Sphere_CW-3.75_BG-grey_stim-white.png,0,129,129,129,131.00378920300864,,,,,,,,,,130.96493706200272,131.04571899300208,131.04571899300208,131.79576582903974,131.78566904301988,131.98106920503778,None,0,,,,,sub-septest,ses-main,run-1,grey,2024-04-24_11h44.32.912,VDT,2023.2.3,121.0155098483288,2024-04-24 11h44.41.351736 +0200,
./images_beh/Sphere_CCW-3.75_BG-grey_stim-white.png,0,130,130,130,132.0257844980224,,,,,,,,,,131.98185659298906,132.06282297102734,132.06282297102734,132.78881294099847,132.80613903299673,132.97985561098903,None,0,,,,,sub-septest,ses-main,run-1,grey,2024-04-24_11h44.32.912,VDT,2023.2.3,121.0155098483288,2024-04-24 11h44.41.351736 +0200,
./images_beh/Sphere_CCW-3.75_BG-grey_stim-white.png,0,131,131,131,133.024715801992,,,,,,,,,,132.98045624402585,133.04617635300383,133.04617635300383,133.78805480804294,133.78805480804294,133.96618296700763,None,0,,,,,sub-septest,ses-main,run-1,grey,2024-04-24_11h44.32.912,VDT,2023.2.3,121.0155098483288,2024-04-24 11h44.41.351736 +0200,
./images_beh/Sphere_CCW-3.75_BG-grey_stim-white.png,0,132,132,132,134.00865801103646,,,,,,,,,,133.9666827369947,134.04571093199775,134.04571093199775,134.7950993910199,134.78515594900819,134.9791581319878,None,0,,,,,sub-septest,ses-main,run-1,grey,2024-04-24_11h44.32.912,VDT,2023.2.3,121.0155098483288,2024-04-24 11h44.41.351736 +0200,
./images_beh/Sphere_Ref_BG-grey_stim-white.png,0,133,133,133,135.0223046640167,,,,,,,,,,134.9795975520392,135.04472483403515,135.04472483403515,135.7948282280122,135.7848585509928,135.98819830303546,None,0,,,,,sub-septest,ses-main,run-1,grey,2024-04-24_11h44.32.912,VDT,2023.2.3,121.0155098483288,2024-04-24 11h44.41.351736 +0200,
./images_beh/Sphere_CW-3.75_BG-grey_stim-white.png,0,134,134,134,136.03370217699558,,,,,,,,,,135.98878285300452,136.04462307301583,136.04462307301583,136.79518133599777,136.78482339798938,137.02064835699275,None,0,,,,,sub-septest,ses-main,run-1,grey,2024-04-24_11h44.32.912,VDT,2023.2.3,121.0155098483288,2024-04-24 11h44.41.351736 +0200,
./images_beh/Sphere_CCW-3.75_BG-grey_stim-white.png,0,135,135,135,137.06960773200262,,,,,,,,,,137.02138953702524,137.06960773200262,137.06960773200262,137.7958068550215,137.81425250403117,137.98721654200926,None,0,,,,,sub-septest,ses-main,run-1,grey,2024-04-24_11h44.32.912,VDT,2023.2.3,121.0155098483288,2024-04-24 11h44.41.351736 +0200,
./images_beh/Sphere_Ref_BG-grey_stim-white.png,0,136,136,136,138.04485878103878,,,,,,,,,,137.98794096102938,138.04485878103878,138.04485878103878,138.79415674699703,138.79415674699703,138.99450011202134,None,0,,,,,sub-septest,ses-main,run-1,grey,2024-04-24_11h44.32.912,VDT,2023.2.3,121.0155098483288,2024-04-24 11h44.41.351736 +0200,
./images_beh/Sphere_CW-3.75_BG-grey_stim-white.png,0,137,137,137,139.03862189198844,,,,,,,,,,138.99547160801012,139.04664062301163,139.04664062301163,139.78802980703767,139.78802980703767,140.02790386899142,None,0,,,,,sub-septest,ses-main,run-1,grey,2024-04-24_11h44.32.912,VDT,2023.2.3,121.0155098483288,2024-04-24 11h44.41.351736 +0200,
./images_beh/Sphere_CCW-3.75_BG-grey_stim-white.png,0,138,138,138,140.0812753540231,,,,,,,,,,140.0287245620275,140.0812753540231,140.0812753540231,140.79361009801505,140.8297283030115,141.0775254840264,None,0,141.04327094601467,,,141.07662444398738,sub-septest,ses-main,run-1,grey,2024-04-24_11h44.32.912,VDT,2023.2.3,121.0155098483288,2024-04-24 11h44.41.351736 +0200,
./images_beh/Sphere_Ref_BG-grey_stim-white.png,0,139,139,139,141.12569662200985,,,,,,,,,,141.0780262540211,141.12569662200985,141.12569662200985,141.79309687303612,141.87104911601637,141.96915162098594,None,0,,,,,sub-septest,ses-main,run-1,grey,2024-04-24_11h44.32.912,VDT,2023.2.3,121.0155098483288,2024-04-24 11h44.41.351736 +0200,
./images_beh/Sphere_CCW-3.75_BG-grey_stim-white.png,0,140,140,140,142.0156595520093,,,,,,,,,,141.9697327099857,142.043615512026,142.043615512026,142.79287737299455,142.7832715450204,142.99313491402427,None,0,,,,,sub-septest,ses-main,run-1,grey,2024-04-24_11h44.32.912,VDT,2023.2.3,121.0155098483288,2024-04-24 11h44.41.351736 +0200,
./images_beh/Sphere_CW-3.75_BG-grey_stim-white.png,0,141,141,141,143.0380223300308,,,,,,,,,,142.99425921600778,143.04649322899058,143.04649322899058,143.8116015639971,143.8116015639971,143.9691379290307,None,0,,,,,sub-septest,ses-main,run-1,grey,2024-04-24_11h44.32.912,VDT,2023.2.3,121.0155098483288,2024-04-24 11h44.41.351736 +0200,
./images_beh/Sphere_CW-3.75_BG-grey_stim-white.png,0,142,142,142,144.02625368803274,,,,,,,,,,143.97021534398664,144.04969134402927,144.04969134402927,144.81144953501644,144.81144953501644,144.99362030200427,None,0,,,,,sub-septest,ses-main,run-1,grey,2024-04-24_11h44.32.912,VDT,2023.2.3,121.0155098483288,2024-04-24 11h44.41.351736 +0200,
./images_beh/Sphere_CW-3.75_BG-grey_stim-white.png,0,143,143,143,145.04319861199474,,,,,,,,,,144.99458757502725,145.050780510006,145.050780510006,145.81146768003237,145.81146768003237,146.0435428750352,None,0,,,,,sub-septest,ses-main,run-1,grey,2024-04-24_11h44.32.912,VDT,2023.2.3,121.0155098483288,2024-04-24 11h44.41.351736 +0200,
./images_beh/Sphere_CCW-3.75_BG-grey_stim-white.png,0,144,144,144,146.09474231000058,,,,,,,,,,146.0441309179878,146.09474231000058,146.09474231000058,146.810412877996,146.85885383101413,147.02679290401284,None,0,,,,,sub-septest,ses-main,run-1,grey,2024-04-24_11h44.32.912,VDT,2023.2.3,121.0155098483288,2024-04-24 11h44.41.351736 +0200,
./images_beh/Sphere_CCW-3.75_BG-grey_stim-white.png,0,145,145,145,147.0821405990282,,,,,,,,,,147.02788536599837,147.0821405990282,147.0821405990282,147.79145160503685,147.8450218680082,148.0004506940022,None,0,,,,,sub-septest,ses-main,run-1,grey,2024-04-24_11h44.32.912,VDT,2023.2.3,121.0155098483288,2024-04-24 11h44.41.351736 +0200,
./images_beh/Sphere_CW-3.75_BG-grey_stim-white.png,0,146,146,146,148.04927421401953,,,,,,,,,,148.00098076398717,148.04927421401953,148.04927421401953,148.7987760460237,148.7987760460237,148.96699488000013,None,0,,,,,sub-septest,ses-main,run-1,grey,2024-04-24_11h44.32.912,VDT,2023.2.3,121.0155098483288,2024-04-24 11h44.41.351736 +0200,
./images_beh/Sphere_Ref_BG-grey_stim-white.png,0,147,147,147,149.0100738350302,,,,,,,,,,148.96747053199215,149.05799694702728,149.05799694702728,149.80662165599642,149.80662165599642,149.99210652901093,None,0,,,,,sub-septest,ses-main,run-1,grey,2024-04-24_11h44.32.912,VDT,2023.2.3,121.0155098483288,2024-04-24 11h44.41.351736 +0200,
./images_beh/Sphere_CCW-3.75_BG-grey_stim-white.png,0,148,148,148,150.04286536603468,,,,,,,,,,149.99283774901414,150.06091235100757,150.06091235100757,150.7991983880056,150.81088523298968,151.01013746100944,None,0,,,,,sub-septest,ses-main,run-1,grey,2024-04-24_11h44.32.912,VDT,2023.2.3,121.0155098483288,2024-04-24 11h44.41.351736 +0200,
./images_beh/Sphere_CW-3.75_BG-grey_stim-white.png,0,149,149,149,151.0550455880002,,,,,,,,,,151.0106371199945,151.0550455880002,151.0550455880002,151.81084022903815,151.81084022903815,151.958470838028,None,0,,,,,sub-septest,ses-main,run-1,grey,2024-04-24_11h44.32.912,VDT,2023.2.3,121.0155098483288,2024-04-24 11h44.41.351736 +0200,
./images_beh/Sphere_CW-3.75_BG-grey_stim-white.png,0,150,150,150,152.01029920199653,,,,,,,,,,151.95921578403795,152.05715098499786,152.05715098499786,152.79891548800515,152.79891548800515,152.9997206130065,None,0,,,,,sub-septest,ses-main,run-1,grey,2024-04-24_11h44.32.912,VDT,2023.2.3,121.0155098483288,2024-04-24 11h44.41.351736 +0200,
./images_beh/Sphere_CCW-3.75_BG-grey_stim-white.png,0,151,151,151,153.0509485800285,,,,,,,,,,153.00046000501607,153.0509485800285,153.0509485800285,153.79926950100344,153.79926950100344,153.99959845800186,None,0,,,,,sub-septest,ses-main,run-1,grey,2024-04-24_11h44.32.912,VDT,2023.2.3,121.0155098483288,2024-04-24 11h44.41.351736 +0200,
./images_beh/Sphere_CCW-3.75_BG-grey_stim-white.png,0,152,152,152,154.053650818998,,,,,,,,,,154.00040826998884,154.053650818998,154.053650818998,154.79876968299504,154.79876968299504,155.03274772601435,None,0,,,,,sub-septest,ses-main,run-1,grey,2024-04-24_11h44.32.912,VDT,2023.2.3,121.0155098483288,2024-04-24 11h44.41.351736 +0200,
./images_beh/Sphere_Ref_BG-grey_stim-white.png,0,153,153,153,155.08615011099027,,,,,,,,,,155.0334652630263,155.08615011099027,155.08615011099027,155.79862958402373,155.83073771302588,156.0116018500412,None,0,,,,,sub-septest,ses-main,run-1,grey,2024-04-24_11h44.32.912,VDT,2023.2.3,121.0155098483288,2024-04-24 11h44.41.351736 +0200,
./images_beh/Sphere_CW-3.75_BG-grey_stim-white.png,0,154,154,154,156.06467296602204,,,,,,,,,,156.0123436130234,156.06467296602204,156.06467296602204,156.79910422803368,156.82242207601666,157.07880474004196,None,0,157.05827635200694,,,157.0780345670064,sub-septest,ses-main,run-1,grey,2024-04-24_11h44.32.912,VDT,2023.2.3,121.0155098483288,2024-04-24 11h44.41.351736 +0200,
./images_beh/Sphere_CW-3.75_BG-grey_stim-white.png,0,155,155,155,157.1333207259886,,,,,,,,,,157.07952273701085,157.1333207259886,157.1333207259886,157.79123642400373,157.88195867603645,157.9803007870214,None,0,,,,,sub-septest,ses-main,run-1,grey,2024-04-24_11h44.32.912,VDT,2023.2.3,121.0155098483288,2024-04-24 11h44.41.351736 +0200,
./images_beh/Sphere_Ref_BG-grey_stim-white.png,0,156,156,156,158.02540175704053,,,,,,,,,,157.98091933800606,158.04647290002322,158.04647290002322,158.78829393303022,158.78829393303022,159.04641027504113,None,0,159.03035259101307,,,159.03861673903884,sub-septest,ses-main,run-1,grey,2024-04-24_11h44.32.912,VDT,2023.2.3,121.0155098483288,2024-04-24 11h44.41.351736 +0200,
./images_beh/Sphere_CW-3.75_BG-grey_stim-white.png,0,157,157,157,159.0980574809946,,,,,,,,,,159.0470088479924,159.0980574809946,159.0980574809946,159.7973466530093,159.84973728703335,159.97253648098558,None,0,,,,,sub-septest,ses-main,run-1,grey,2024-04-24_11h44.32.912,VDT,2023.2.3,121.0155098483288,2024-04-24 11h44.41.351736 +0200,
./images_beh/Sphere_CCW-3.75_BG-grey_stim-white.png,0,158,158,158,160.0164664069889,,,,,,,,,,159.97298011300154,160.04612820100738,160.04612820100738,160.79638829699252,160.78805043798639,161.0222303100163,None,0,,,,,sub-septest,ses-main,run-1,grey,2024-04-24_11h44.32.912,VDT,2023.2.3,121.0155098483288,2024-04-24 11h44.41.351736 +0200,
./images_beh/Sphere_Ref_BG-grey_stim-white.png,0,159,159,159,161.07125160103897,,,,,,,,,,161.02302611299092,161.07125160103897,161.07125160103897,161.79638995602727,161.81696410302538,161.9559828150086,None,0,,,,,sub-septest,ses-main,run-1,grey,2024-04-24_11h44.32.912,VDT,2023.2.3,121.0155098483288,2024-04-24 11h44.41.351736 +0200,
./images_beh/Sphere_CCW-3.75_BG-grey_stim-white.png,0,160,160,160,161.9967957410263,,,,,,,,,,161.9565333640203,162.04625848704018,162.04625848704018,162.7959533930407,162.7874923379859,163.0142173410277,None,0,,,,,sub-septest,ses-main,run-1,grey,2024-04-24_11h44.32.912,VDT,2023.2.3,121.0155098483288,2024-04-24 11h44.41.351736 +0200,
./images_beh/Sphere_CW-3.75_BG-grey_stim-white.png,0,161,161,161,163.05824624700472,,,,,,,,,,163.01471881300677,163.05824624700472,163.05824624700472,163.7964390279958,163.8063399560051,164.01390178699512,None,0,,,,,sub-septest,ses-main,run-1,grey,2024-04-24_11h44.32.912,VDT,2023.2.3,121.0155098483288,2024-04-24 11h44.41.351736 +0200,
./images_beh/Sphere_CCW-3.75_BG-grey_stim-white.png,0,162,162,162,164.0618088680203,,,,,,,,,,164.0144202960073,164.0618088680203,164.0618088680203,164.79642273799982,164.8048543279874,164.98042877600528,None,0,,,,,sub-septest,ses-main,run-1,grey,2024-04-24_11h44.32.912,VDT,2023.2.3,121.0155098483288,2024-04-24 11h44.41.351736 +0200,
./images_beh/Sphere_CW-3.75_BG-grey_stim-white.png,0,163,163,163,165.02803801803384,,,,,,,,,,164.98092895001173,165.0445090919966,165.0445090919966,165.7945169529994,165.78636400500545,166.0222070660093,None,0,,,,,sub-septest,ses-main,run-1,grey,2024-04-24_11h44.32.912,VDT,2023.2.3,121.0155098483288,2024-04-24 11h44.41.351736 +0200,
./images_beh/Sphere_CCW-3.75_BG-grey_stim-white.png,0,164,164,164,166.07196116802515,,,,,,,,,,166.02322889200877,166.07196116802515,166.07196116802515,166.80337443598546,166.8287408479955,166.997121124994,None,0,,,,,sub-septest,ses-main,run-1,grey,2024-04-24_11h44.32.912,VDT,2023.2.3,121.0155098483288,2024-04-24 11h44.41.351736 +0200,
./images_beh/Sphere_Ref_BG-grey_stim-white.png,0,165,165,165,167.0479619349935,,,,,,,,,,166.99784900003579,167.0555383960018,167.0555383960018,167.796094972,167.796094972,167.97930838604225,None,0,,,,,sub-septest,ses-main,run-1,grey,2024-04-24_11h44.32.912,VDT,2023.2.3,121.0155098483288,2024-04-24 11h44.41.351736 +0200,
./images_beh/Sphere_CCW-3.75_BG-grey_stim-white.png,0,166,166,166,168.02467602404067,,,,,,,,,,167.9799419370247,168.04362611100078,168.04362611100078,168.7939398509916,168.785691031022,168.99458246299764,None,0,,,,,sub-septest,ses-main,run-1,grey,2024-04-24_11h44.32.912,VDT,2023.2.3,121.0155098483288,2024-04-24 11h44.41.351736 +0200,
./images_beh/Sphere_CCW-3.75_BG-grey_stim-white.png,0,167,167,167,169.0447446780163,,,,,,,,,,168.9953001650283,169.05235497100512,169.05235497100512,169.79508440103382,169.79508440103382,170.02770067204256,None,0,,,,,sub-septest,ses-main,run-1,grey,2024-04-24_11h44.32.912,VDT,2023.2.3,121.0155098483288,2024-04-24 11h44.41.351736 +0200,
./images_beh/Sphere_CW-3.75_BG-grey_stim-white.png,0,168,168,168,170.08078262902563,,,,,,,,,,170.0284003459965,170.08078262902563,170.08078262902563,170.79530731699197,170.82358272001147,170.99646311503602,None,0,,,,,sub-septest,ses-main,run-1,grey,2024-04-24_11h44.32.912,VDT,2023.2.3,121.0155098483288,2024-04-24 11h44.41.351736 +0200,
./images_beh/Sphere_CW-3.75_BG-grey_stim-white.png,0,169,169,169,171.04141815303592,,,,,,,,,,170.9970536220353,171.0510854240274,171.0510854240274,171.79348300304264,171.79348300304264,171.9609382810304,None,0,,,,,sub-septest,ses-main,run-1,grey,2024-04-24_11h44.32.912,VDT,2023.2.3,121.0155098483288,2024-04-24 11h44.41.351736 +0200,
./images_beh/Sphere_Ref_BG-grey_stim-white.png,0,170,170,170,172.01284825103357,,,,,,,,,,171.96195865102345,172.04279812501045,172.04279812501045,172.79208595503587,172.78454862203216,173.01945277198683,None,0,,,,,sub-septest,ses-main,run-1,grey,2024-04-24_11h44.32.912,VDT,2023.2.3,121.0155098483288,2024-04-24 11h44.41.351736 +0200,
./images_beh/Sphere_CCW-3.75_BG-grey_stim-white.png,0,171,171,171,173.0695935440017,,,,,,,,,,173.02096274902578,173.0695935440017,173.0695935440017,173.79352592403302,173.8103676220053,174.01045904302737,None,0,,,,,sub-septest,ses-main,run-1,grey,2024-04-24_11h44.32.912,VDT,2023.2.3,121.0155098483288,2024-04-24 11h44.41.351736 +0200,
./images_beh/Sphere_CCW-3.75_BG-grey_stim-white.png,0,172,172,172,174.0591005400056,,,,,,,,,,174.01105231401743,174.0591005400056,174.0591005400056,174.7927460480132,174.80082348402357,174.97565739101265,None,0,,,,,sub-septest,ses-main,run-1,grey,2024-04-24_11h44.32.912,VDT,2023.2.3,121.0155098483288,2024-04-24 11h44.41.351736 +0200,
./images_beh/Sphere_Ref_BG-grey_stim-white.png,0,173,173,173,175.0120550839929,,,,,,,,,,174.9761011460214,175.04158968501724,175.04158968501724,175.79285035299836,175.7842812500312,176.0410812239861,None,0,176.04027787101222,,,176.0340976860025,sub-septest,ses-main,run-1,grey,2024-04-24_11h44.32.912,VDT,2023.2.3,121.0155098483288,2024-04-24 11h44.41.351736 +0200,
./images_beh/Sphere_CW-3.75_BG-grey_stim-white.png,0,174,174,174,176.0839842360001,,,,,,,,,,176.04157225700328,176.0839842360001,176.0839842360001,176.79185733001214,176.82667115400545,176.97599996102508,None,0,,,,,sub-septest,ses-main,run-1,grey,2024-04-24_11h44.32.912,VDT,2023.2.3,121.0155098483288,2024-04-24 11h44.41.351736 +0200,
./images_beh/Sphere_CW-3.75_BG-grey_stim-white.png,0,175,175,175,177.01937261899002,,,,,,,,,,176.97650013002567,177.04088501102524,177.04088501102524,177.7910430090269,177.7833957039984,178.0009869770147,None,0,,,,,sub-septest,ses-main,run-1,grey,2024-04-24_11h44.32.912,VDT,2023.2.3,121.0155098483288,2024-04-24 11h44.41.351736 +0200,
./images_beh/Sphere_Ref_BG-grey_stim-white.png,0,176,176,176,178.05531940498622,,,,,,,,,,178.00170643202728,178.05531940498622,178.05531940498622,178.79187665198697,178.80226436303928,179.01305878703715,None,0,,,,,sub-septest,ses-main,run-1,grey,2024-04-24_11h44.32.912,VDT,2023.2.3,121.0155098483288,2024-04-24 11h44.41.351736 +0200,
./images_beh/Sphere_CW-3.75_BG-grey_stim-white.png,0,177,177,177,179.06055166001897,,,,,,,,,,179.01370511204004,179.06055166001897,179.06055166001897,179.79093551903497,179.80958286800887,180.0027601569891,None,0,,,,,sub-septest,ses-main,run-1,grey,2024-04-24_11h44.32.912,VDT,2023.2.3,121.0155098483288,2024-04-24 11h44.41.351736 +0200,
./images_beh/Sphere_CW-3.75_BG-grey_stim-white.png,0,178,178,178,180.05815407104092,,,,,,,,,,180.00386950501706,180.05815407104092,180.05815407104092,180.7906562749995,180.79920799902175,181.01885527803097,None,0,,,,,sub-septest,ses-main,run-1,grey,2024-04-24_11h44.32.912,VDT,2023.2.3,121.0155098483288,2024-04-24 11h44.41.351736 +0200,
./images_beh/Sphere_CCW-3.75_BG-grey_stim-white.png,0,179,179,179,181.06374027999118,,,,,,,,,,181.0200771430391,181.06374027999118,181.06374027999118,181.79029864503536,181.80821000499418,181.98990156000946,None,0,,,,,sub-septest,ses-main,run-1,grey,2024-04-24_11h44.32.912,VDT,2023.2.3,121.0155098483288,2024-04-24 11h44.41.351736 +0200,
./images_beh/Sphere_CW-3.75_BG-grey_stim-white.png,0,180,180,180,182.03375502099516,,,,,,,,,,181.9903963530087,182.0418202120345,182.0418202120345,182.78914373699808,182.78914373699808,183.0334722700063,None,0,,,,,sub-septest,ses-main,run-1,grey,2024-04-24_11h44.32.912,VDT,2023.2.3,121.0155098483288,2024-04-24 11h44.41.351736 +0200,
./images_beh/Sphere_CW-3.75_BG-grey_stim-white.png,0,181,181,181,183.09138449298916,,,,,,,,,,183.03419638500782,183.09138449298916,183.09138449298916,183.79055496602086,183.84030749404337,183.99008961603977,None,0,,,,,sub-septest,ses-main,run-1,grey,2024-04-24_11h44.32.912,VDT,2023.2.3,121.0155098483288,2024-04-24 11h44.41.351736 +0200,
./images_beh/Sphere_Ref_BG-grey_stim-white.png,0,182,182,182,184.03662973101018,,,,,,,,,,183.99067323299823,184.04907840001397,184.04907840001397,184.78932535101194,184.78932535101194,184.9734406620264,None,0,,,,,sub-septest,ses-main,run-1,grey,2024-04-24_11h44.32.912,VDT,2023.2.3,121.0155098483288,2024-04-24 11h44.41.351736 +0200,
./images_beh/Sphere_CW-3.75_BG-grey_stim-white.png,0,183,183,183,185.02169404400047,,,,,,,,,,184.9740386790363,185.0386310259928,185.0386310259928,185.79009952401975,185.78241168201203,186.03854404902086,None,0,186.03132168599404,,,186.03132168599404,sub-septest,ses-main,run-1,grey,2024-04-24_11h44.32.912,VDT,2023.2.3,121.0155098483288,2024-04-24 11h44.41.351736 +0200,
./images_beh/Sphere_CCW-3.75_BG-grey_stim-white.png,0,184,184,184,186.0935373090324,,,,,,,,,,186.0392633220181,186.0935373090324,186.0935373090324,186.78988780098734,186.8393579100375,187.01647788501577,None,0,,,,,sub-septest,ses-main,run-1,grey,2024-04-24_11h44.32.912,VDT,2023.2.3,121.0155098483288,2024-04-24 11h44.41.351736 +0200,
./images_beh/Sphere_CW-3.75_BG-grey_stim-white.png,0,185,185,185,187.06244729703758,,,,,,,,,,187.01710104598897,187.06244729703758,187.06244729703758,187.78970426501473,187.8071300680167,188.0067589849932,None,0,,,,,sub-septest,ses-main,run-1,grey,2024-04-24_11h44.32.912,VDT,2023.2.3,121.0155098483288,2024-04-24 11h44.41.351736 +0200,
./images_beh/Sphere_Ref_BG-grey_stim-white.png,0,186,186,186,188.0530464280164,,,,,,,,,,188.00750743900426,188.0530464280164,188.0530464280164,188.78900205902755,188.79701112600742,189.0152302790084,None,0,,,,,sub-septest,ses-main,run-1,grey,2024-04-24_11h44.32.912,VDT,2023.2.3,121.0155098483288,2024-04-24 11h44.41.351736 +0200,
./images_beh/Sphere_CW-3.75_BG-grey_stim-white.png,0,187,187,187,189.05665852600941,,,,,,,,,,189.0159799340181,189.05665852600941,189.05665852600941,189.79658973799087,189.80580881499918,190.00745158002246,None,0,,,,,sub-septest,ses-main,run-1,grey,2024-04-24_11h44.32.912,VDT,2023.2.3,121.0155098483288,2024-04-24 11h44.41.351736 +0200,
./images_beh/Sphere_CW-3.75_BG-grey_stim-white.png,0,188,188,188,190.05004942399682,,,,,,,,,,190.00838466902496,190.05004942399682,190.05004942399682,190.7887607809971,190.79642352700466,190.966097394994,None,0,,,,,sub-septest,ses-main,run-1,grey,2024-04-24_11h44.32.912,VDT,2023.2.3,121.0155098483288,2024-04-24 11h44.41.351736 +0200,
./images_beh/Sphere_Ref_BG-grey_stim-white.png,0,189,189,189,191.00001713103848,,,,,,,,,,190.96658602904063,191.03739142400445,191.03739142400445,191.78817102499306,191.78038175601978,191.980427270988,None,0,,,,,sub-septest,ses-main,run-1,grey,2024-04-24_11h44.32.912,VDT,2023.2.3,121.0155098483288,2024-04-24 11h44.41.351736 +0200,
./images_beh/Sphere_CCW-3.75_BG-grey_stim-white.png,0,190,190,190,192.02766728203278,,,,,,,,,,191.98136240203166,192.04593037301674,192.04593037301674,192.79585030302405,192.785890500003,192.96356276399456,None,0,,,,,sub-septest,ses-main,run-1,grey,2024-04-24_11h44.32.912,VDT,2023.2.3,121.0155098483288,2024-04-24 11h44.41.351736 +0200,
./images_beh/Sphere_CCW-3.75_BG-grey_stim-white.png,0,191,191,191,193.0099695849931,,,,,,,,,,192.9645365140168,193.04540605202783,193.04540605202783,193.78824339603307,193.78824339603307,193.97977960499702,None,0,,,,,sub-septest,ses-main,run-1,grey,2024-04-24_11h44.32.912,VDT,2023.2.3,121.0155098483288,2024-04-24 11h44.41.351736 +0200,
./images_beh/Sphere_Ref_BG-grey_stim-white.png,0,192,192,192,194.0299661210156,,,,,,,,,,193.98064335802337,194.04550493403804,194.04550493403804,194.79566872300347,194.78497450600844,195.01288675703108,None,0,,,,,sub-septest,ses-main,run-1,grey,2024-04-24_11h44.32.912,VDT,2023.2.3,121.0155098483288,2024-04-24 11h44.41.351736 +0200,
./images_beh/Sphere_CW-3.75_BG-grey_stim-white.png,0,193,193,193,195.06295456003863,,,,,,,,,,195.01388961303746,195.06295456003863,195.06295456003863,195.7968569890363,195.80471526802285,196.0296769120032,None,0,,,,,sub-septest,ses-main,run-1,grey,2024-04-24_11h44.32.912,VDT,2023.2.3,121.0155098483288,2024-04-24 11h44.41.351736 +0200,
./images_beh/Sphere_CCW-3.75_BG-grey_stim-white.png,0,194,194,194,196.08213650702965,,,,,,,,,,196.03068785503274,196.08213650702965,196.08213650702965,196.79526830103714,196.84537180198822,196.99577949399827,None,0,,,,,sub-septest,ses-main,run-1,grey,2024-04-24_11h44.32.912,VDT,2023.2.3,121.0155098483288,2024-04-24 11h44.41.351736 +0200,
./images_beh/Sphere_CCW-3.75_BG-grey_stim-white.png,0,195,195,195,197.04584111599252,,,,,,,,,,196.99666110402904,197.06176948698703,197.06176948698703,197.79430337902158,197.8011958200368,197.9853428149945,None,0,,,,,sub-septest,ses-main,run-1,grey,2024-04-24_11h44.32.912,VDT,2023.2.3,121.0155098483288,2024-04-24 11h44.41.351736 +0200,
./images_beh/Sphere_CCW-3.75_BG-grey_stim-white.png,0,196,196,196,198.0278930850327,,,,,,,,,,197.98586313403212,198.04509217402665,198.04509217402665,198.7943351250142,198.78466548403958,198.9955963260145,None,0,,,,,sub-septest,ses-main,run-1,grey,2024-04-24_11h44.32.912,VDT,2023.2.3,121.0155098483288,2024-04-24 11h44.41.351736 +0200,
./images_beh/Sphere_CCW-3.75_BG-grey_stim-white.png,0,197,197,197,199.04811892402358,,,,,,,,,,198.9963046979974,199.0625839229906,199.0625839229906,199.79648205603007,199.80513238999993,199.98648527701152,None,0,,,,,sub-septest,ses-main,run-1,grey,2024-04-24_11h44.32.912,VDT,2023.2.3,121.0155098483288,2024-04-24 11h44.41.351736 +0200,
./images_beh/Sphere_CW-3.75_BG-grey_stim-white.png,0,198,198,198,200.02842454903293,,,,,,,,,,199.98698664299445,200.05167143099243,200.05167143099243,200.79378873400856,200.79378873400856,201.01918432099046,None,0,,,,,sub-septest,ses-main,run-1,grey,2024-04-24_11h44.32.912,VDT,2023.2.3,121.0155098483288,2024-04-24 11h44.41.351736 +0200,
./images_beh/Sphere_CCW-3.75_BG-grey_stim-white.png,0,199,199,199,201.06449664302636,,,,,,,,,,201.02003002702259,201.06449664302636,201.06449664302636,201.79345314903185,201.81137924303766,201.96281834400725,None,0,,,,,sub-septest,ses-main,run-1,grey,2024-04-24_11h44.32.912,VDT,2023.2.3,121.0155098483288,2024-04-24 11h44.41.351736 +0200,
./images_beh/Sphere_Ref_BG-grey_stim-white.png,0,200,200,200,202.00147052301327,,,,,,,,,,201.96343662199797,202.04338652803563,202.04338652803563,202.79328012804035,202.78284667001572,203.01926049299072,None,0,,,,,sub-septest,ses-main,run-1,grey,2024-04-24_11h44.32.912,VDT,2023.2.3,121.0155098483288,2024-04-24 11h44.41.351736 +0200,
./images_beh/Sphere_CW-3.75_BG-grey_stim-white.png,0,201,201,201,203.06463730701944,,,,,,,,,,203.02003481099382,203.06463730701944,203.06463730701944,203.7949937430094,203.81369465700118,203.99402746302076,None,0,,,,,sub-septest,ses-main,run-1,grey,2024-04-24_11h44.32.912,VDT,2023.2.3,121.0155098483288,2024-04-24 11h44.41.351736 +0200,
./images_beh/Sphere_CCW-3.75_BG-grey_stim-white.png,0,202,202,202,204.04117180401227,,,,,,,,,,203.99501426098868,204.0488515770412,204.0488515770412,204.79302087699762,204.79302087699762,204.98392430698732,None,0,,,,,sub-septest,ses-main,run-1,grey,2024-04-24_11h44.32.912,VDT,2023.2.3,121.0155098483288,2024-04-24 11h44.41.351736 +0200,
./images_beh/Sphere_Ref_BG-grey_stim-white.png,0,203,203,203,205.02710744703654,,,,,,,,,,204.98441663902486,205.04964365100022,205.04964365100022,205.79399939399445,205.79399939399445,205.97650377900572,None,0,,,,,sub-septest,ses-main,run-1,grey,2024-04-24_11h44.32.912,VDT,2023.2.3,121.0155098483288,2024-04-24 11h44.41.351736 +0200,
./images_beh/Sphere_CW-3.75_BG-grey_stim-white.png,0,204,204,204,206.02614838303998,,,,,,,,,,205.97747618501307,206.04203927703202,206.04203927703202,206.80871189100435,206.80871189100435,207.01871448702877,None,0,,,,,sub-septest,ses-main,run-1,grey,2024-04-24_11h44.32.912,VDT,2023.2.3,121.0155098483288,2024-04-24 11h44.41.351736 +0200,
./images_beh/Sphere_CCW-3.75_BG-grey_stim-white.png,0,205,205,205,207.0689395260415,,,,,,,,,,207.01959691400407,207.0689395260415,207.0689395260415,207.7963265790022,207.8135000130278,207.9931807440007,None,0,,,,,sub-septest,ses-main,run-1,grey,2024-04-24_11h44.32.912,VDT,2023.2.3,121.0155098483288,2024-04-24 11h44.41.351736 +0200,
./images_beh/Sphere_CCW-3.75_BG-grey_stim-white.png,0,206,206,206,208.04799752600957,,,,,,,,,,207.9943140189862,208.04799752600957,208.04799752600957,208.79163059801795,208.79163059801795,209.001455324993,None,0,,,,,sub-septest,ses-main,run-1,grey,2024-04-24_11h44.32.912,VDT,2023.2.3,121.0155098483288,2024-04-24 11h44.41.351736 +0200,
./images_beh/Sphere_CW-3.75_BG-grey_stim-white.png,0,207,207,207,209.06156029598787,,,,,,,,,,209.00222296803258,209.06156029598787,209.06156029598787,209.80928603903158,209.82486634299858,209.96813411201583,None,0,,,,,sub-septest,ses-main,run-1,grey,2024-04-24_11h44.32.912,VDT,2023.2.3,121.0155098483288,2024-04-24 11h44.41.351736 +0200,
./images_beh/Sphere_CW-3.75_BG-grey_stim-white.png,0,208,208,208,210.02098447602475,,,,,,,,,,209.968938119011,210.05953266803408,210.05953266803408,210.79120681103086,210.82443981501274,211.01376848999644,None,0,,,,,sub-septest,ses-main,run-1,grey,2024-04-24_11h44.32.912,VDT,2023.2.3,121.0155098483288,2024-04-24 11h44.41.351736 +0200,
./images_beh/Sphere_CCW-3.75_BG-grey_stim-white.png,0,209,209,209,211.06010162003804,,,,,,,,,,211.01439233100973,211.06010162003804,211.06010162003804,211.80171164002968,211.82395735103637,211.96478750003735,None,0,,,,,sub-septest,ses-main,run-1,grey,2024-04-24_11h44.32.912,VDT,2023.2.3,121.0155098483288,2024-04-24 11h44.41.351736 +0200,
./images_beh/Sphere_Ref_BG-grey_stim-white.png,0,210,210,210,211.9997290240135,,,,,,,,,,211.96512689901283,212.04772531799972,212.04772531799972,212.79043448204175,212.79043448204175,212.9673270410276,None,0,,,,,sub-septest,ses-main,run-1,grey,2024-04-24_11h44.32.912,VDT,2023.2.3,121.0155098483288,2024-04-24 11h44.41.351736 +0200,
./images_beh/Sphere_CCW-3.75_BG-grey_stim-white.png,0,211,211,211,213.014338175999,,,,,,,,,,212.96791673399275,213.05849346600007,213.05849346600007,213.79791544901673,213.81090568902437,214.01426319702296,None,0,,,,,sub-septest,ses-main,run-1,grey,2024-04-24_11h44.32.912,VDT,2023.2.3,121.0155098483288,2024-04-24 11h44.41.351736 +0200,
./images_beh/Sphere_CW-3.75_BG-grey_stim-white.png,0,212,212,212,214.06760566402227,,,,,,,,,,214.0150215459871,214.06760566402227,214.06760566402227,214.8001309550018,214.82333043502877,214.9650718300254,None,0,,,,,sub-septest,ses-main,run-1,grey,2024-04-24_11h44.32.912,VDT,2023.2.3,121.0155098483288,2024-04-24 11h44.41.351736 +0200,
./images_beh/Sphere_Ref_BG-grey_stim-white.png,0,213,213,213,215.00074796401896,,,,,,,,,,214.96537363203242,215.05651676800335,215.05651676800335,215.7990291120368,215.7990291120368,216.02391176501988,None,0,,,,,sub-septest,ses-main,run-1,grey,2024-04-24_11h44.32.912,VDT,2023.2.3,121.0155098483288,2024-04-24 11h44.41.351736 +0200,
./images_beh/Sphere_CW-3.75_BG-grey_stim-white.png,0,214,214,214,216.07527456403477,,,,,,,,,,216.02484906703467,216.07527456403477,216.07527456403477,216.79960196098546,216.8442593900254,217.05721403402276,None,0,217.05623736704,,,,sub-septest,ses-main,run-1,grey,2024-04-24_11h44.32.912,VDT,2023.2.3,121.0155098483288,2024-04-24 11h44.41.351736 +0200,
./images_beh/Sphere_CCW-3.75_BG-grey_stim-white.png,0,215,215,215,217.1057491489919,,,,,,,,,,217.0581504169968,217.1057491489919,217.1057491489919,217.7984130739933,217.85609487904003,218.02276101202006,None,0,,,,,sub-septest,ses-main,run-1,grey,2024-04-24_11h44.32.912,VDT,2023.2.3,121.0155098483288,2024-04-24 11h44.41.351736 +0200,
./images_beh/Sphere_CW-3.75_BG-grey_stim-white.png,0,216,216,216,218.06772583699785,,,,,,,,,,218.0234262709855,218.06772583699785,218.06772583699785,218.79931136901723,218.84409746702295,218.99014385300688,None,0,,,,,sub-septest,ses-main,run-1,grey,2024-04-24_11h44.32.912,VDT,2023.2.3,121.0155098483288,2024-04-24 11h44.41.351736 +0200,
./images_beh/Sphere_CW-3.75_BG-grey_stim-white.png,0,217,217,217,219.04129842302063,,,,,,,,,,218.99098864302505,219.05541299603647,219.05541299603647,219.7975683560362,219.7975683560362,219.97571815300034,None,0,,,,,sub-septest,ses-main,run-1,grey,2024-04-24_11h44.32.912,VDT,2023.2.3,121.0155098483288,2024-04-24 11h44.41.351736 +0200,
./images_beh/Sphere_Ref_BG-grey_stim-white.png,0,218,218,218,220.02155958901858,,,,,,,,,,219.97630366904195,220.05541881598765,220.05541881598765,220.7966502290219,220.7966502290219,221.0307189929881,None,0,,,,,sub-septest,ses-main,run-1,grey,2024-04-24_11h44.32.912,VDT,2023.2.3,121.0155098483288,2024-04-24 11h44.41.351736 +0200,
./images_beh/Sphere_CCW-3.75_BG-grey_stim-white.png,0,219,219,219,221.07931287400424,,,,,,,,,,221.03143736498896,221.07931287400424,221.07931287400424,221.80638644099236,221.82556195999496,221.98839618702186,None,0,,,,,sub-septest,ses-main,run-1,grey,2024-04-24_11h44.32.912,VDT,2023.2.3,121.0155098483288,2024-04-24 11h44.41.351736 +0200,
./images_beh/Sphere_CW-3.75_BG-grey_stim-white.png,0,220,220,220,222.03598511201562,,,,,,,,,,221.98919028101955,222.05464333703276,222.05464333703276,222.7955691970419,222.7955691970419,223.03867439803435,None,0,223.037735135993,,,,sub-septest,ses-main,run-1,grey,2024-04-24_11h44.32.912,VDT,2023.2.3,121.0155098483288,2024-04-24 11h44.41.351736 +0200,
./images_beh/Sphere_CCW-3.75_BG-grey_stim-white.png,0,221,221,221,223.08571640803711,,,,,,,,,,223.03964083001483,223.08571640803711,223.08571640803711,223.78982306603575,223.82855268300045,224.01665474602487,None,0,,,,,sub-septest,ses-main,run-1,grey,2024-04-24_11h44.32.912,VDT,2023.2.3,121.0155098483288,2024-04-24 11h44.41.351736 +0200,
./images_beh/Sphere_CW-3.75_BG-grey_stim-white.png,0,222,222,222,224.06717289501103,,,,,,,,,,224.01726939104265,224.06717289501103,224.06717289501103,224.791067328013,224.81019481900148,225.0046088300296,None,0,,,,,sub-septest,ses-main,run-1,grey,2024-04-24_11h44.32.912,VDT,2023.2.3,121.0155098483288,2024-04-24 11h44.41.351736 +0200,
./images_beh/Sphere_Ref_BG-grey_stim-white.png,0,223,223,223,225.04837660799967,,,,,,,,,,225.00550625403412,225.04837660799967,225.04837660799967,225.80403428000864,225.80403428000864,225.99681250500726,None,0,,,,,sub-septest,ses-main,run-1,grey,2024-04-24_11h44.32.912,VDT,2023.2.3,121.0155098483288,2024-04-24 11h44.41.351736 +0200,
./images_beh/Sphere_CW-3.75_BG-grey_stim-white.png,0,224,224,224,226.04475165501935,,,,,,,,,,225.99742473603692,226.05347228003666,226.05347228003666,226.79726357699838,226.79726357699838,226.96284520998597,None,0,,,,,sub-septest,ses-main,run-1,grey,2024-04-24_11h44.32.912,VDT,2023.2.3,121.0155098483288,2024-04-24 11h44.41.351736 +0200,
./images_beh/Sphere_CCW-3.75_BG-grey_stim-white.png,0,225,225,225,227.01276879903162,,,,,,,,,,226.9635839840048,227.04547819303116,227.04547819303116,227.79388884699438,227.78629745001672,227.95385642303154,None,0,,,,,sub-septest,ses-main,run-1,grey,2024-04-24_11h44.32.912,VDT,2023.2.3,121.0155098483288,2024-04-24 11h44.41.351736 +0200,
./images_beh/Sphere_Ref_BG-grey_stim-white.png,0,226,226,226,228.0042019910179,,,,,,,,,,227.95480391202727,228.04484345501987,228.04484345501987,228.78845493600238,228.78845493600238,229.00370376900537,None,0,,,,,sub-septest,ses-main,run-1,grey,2024-04-24_11h44.32.912,VDT,2023.2.3,121.0155098483288,2024-04-24 11h44.41.351736 +0200,
./images_beh/Sphere_CW-3.75_BG-grey_stim-white.png,0,227,227,227,229.051130389038,,,,,,,,,,229.0044504830148,229.051130389038,229.051130389038,229.79426135501126,229.79426135501126,230.0043492190307,None,0,,,,,sub-septest,ses-main,run-1,grey,2024-04-24_11h44.32.912,VDT,2023.2.3,121.0155098483288,2024-04-24 11h44.41.351736 +0200,
./images_beh/Sphere_CCW-3.75_BG-grey_stim-white.png,0,228,228,228,230.05371404602192,,,,,,,,,,230.00526415702188,230.05371404602192,230.05371404602192,230.79519735701615,230.79519735701615,231.02008018404013,None,0,,,,,sub-septest,ses-main,run-1,grey,2024-04-24_11h44.32.912,VDT,2023.2.3,121.0155098483288,2024-04-24 11h44.41.351736 +0200,
./images_beh/Sphere_CCW-3.75_BG-grey_stim-white.png,0,229,229,229,231.0663682410377,,,,,,,,,,231.02059228502912,231.0663682410377,231.0663682410377,231.79570812103339,231.81382510100957,231.99514913698658,None,0,,,,,sub-septest,ses-main,run-1,grey,2024-04-24_11h44.32.912,VDT,2023.2.3,121.0155098483288,2024-04-24 11h44.41.351736 +0200,
./images_beh/Sphere_Ref_BG-grey_stim-white.png,0,230,230,230,232.04421516600996,,,,,,,,,,231.9958690740168,232.05119764700066,232.05119764700066,232.7960194470361,232.7960194470361,232.9638817239902,None,0,,,,,sub-septest,ses-main,run-1,grey,2024-04-24_11h44.32.912,VDT,2023.2.3,121.0155098483288,2024-04-24 11h44.41.351736 +0200,
./images_beh/Sphere_CW-3.75_BG-grey_stim-white.png,0,231,231,231,233.01671421900392,,,,,,,,,,232.9649628479965,233.04343405400869,233.04343405400869,233.79273700300837,233.7852034200332,233.97057590802433,None,0,,,,,sub-septest,ses-main,run-1,grey,2024-04-24_11h44.32.912,VDT,2023.2.3,121.0155098483288,2024-04-24 11h44.41.351736 +0200,
./images_beh/Sphere_CCW-3.75_BG-grey_stim-white.png,0,232,232,232,234.01888382801553,,,,,,,,,,233.97123398800613,234.04240465903422,234.04240465903422,234.79427049402148,234.7860779390321,234.99577739700908,None,0,,,,,sub-septest,ses-main,run-1,grey,2024-04-24_11h44.32.912,VDT,2023.2.3,121.0155098483288,2024-04-24 11h44.41.351736 +0200,
./images_beh/Sphere_CCW-3.75_BG-grey_stim-white.png,0,233,233,233,235.04644228203688,,,,,,,,,,234.9965009370353,235.05384799302556,235.05384799302556,235.80148523999378,235.80148523999378,235.9794126880006,None,0,,,,,sub-septest,ses-main,run-1,grey,2024-04-24_11h44.32.912,VDT,2023.2.3,121.0155098483288,2024-04-24 11h44.41.351736 +0200,
./images_beh/Sphere_CCW-3.75_BG-grey_stim-white.png,0,234,234,234,236.02703280904097,,,,,,,,,,235.98014290101128,236.04161045403453,236.04161045403453,236.79378183098743,236.7854003550019,237.01109835901298,None,0,,,,,sub-septest,ses-main,run-1,grey,2024-04-24_11h44.32.912,VDT,2023.2.3,121.0155098483288,2024-04-24 11h44.41.351736 +0200,
./images_beh/Sphere_CW-3.75_BG-grey_stim-white.png,0,235,235,235,237.06500421301462,,,,,,,,,,237.0121728350059,237.06500421301462,237.06500421301462,237.79440660501132,237.81208532000892,237.9711364750401,None,0,,,,,sub-septest,ses-main,run-1,grey,2024-04-24_11h44.32.912,VDT,2023.2.3,121.0155098483288,2024-04-24 11h44.41.351736 +0200,
./images_beh/Sphere_Ref_BG-grey_stim-white.png,0,236,236,236,238.01903985399986,,,,,,,,,,237.97180178400595,238.04140025604283,238.04140025604283,238.7914059460163,238.7914059460163,238.95988310698885,None,0,,,,,sub-septest,ses-main,run-1,grey,2024-04-24_11h44.32.912,VDT,2023.2.3,121.0155098483288,2024-04-24 11h44.41.351736 +0200,
./images_beh/Sphere_CW-3.75_BG-grey_stim-white.png,0,237,237,237,238.99730955803534,,,,,,,,,,238.96042832103558,239.04121430200757,239.04121430200757,239.79113237303682,239.78305147000356,240.01475703000324,None,0,,,,,sub-septest,ses-main,run-1,grey,2024-04-24_11h44.32.912,VDT,2023.2.3,121.0155098483288,2024-04-24 11h44.41.351736 +0200,
./images_beh/Sphere_CCW-3.75_BG-grey_stim-white.png,0,238,238,238,240.0632713449886,,,,,,,,,,240.01543572504306,240.0632713449886,240.0632713449886,240.79961717198603,240.80897881201236,241.02617698599352,None,0,,,,,sub-septest,ses-main,run-1,grey,2024-04-24_11h44.32.912,VDT,2023.2.3,121.0155098483288,2024-04-24 11h44.41.351736 +0200,
./images_beh/Sphere_Ref_BG-grey_stim-white.png,0,239,239,239,241.0782585850102,,,,,,,,,,241.02691234601662,241.0782585850102,241.0782585850102,241.79291599302087,241.82113344001118,242.0004551220336,None,0,,,,,sub-septest,ses-main,run-1,grey,2024-04-24_11h44.32.912,VDT,2023.2.3,121.0155098483288,2024-04-24 11h44.41.351736 +0200,
./images_beh/Sphere_CCW-3.75_BG-grey_stim-white.png,0,240,240,240,242.04674979299307,,,,,,,,,,242.00120217702352,242.04674979299307,242.04674979299307,242.79138968000188,242.79138968000188,242.99047938501462,None,0,,,,,sub-septest,ses-main,run-1,grey,2024-04-24_11h44.32.912,VDT,2023.2.3,121.0155098483288,2024-04-24 11h44.41.351736 +0200,
./images_beh/Sphere_CCW-3.75_BG-grey_stim-white.png,0,241,241,241,243.03307874401798,,,,,,,,,,242.99106161203235,243.04963162803324,243.04963162803324,243.7899803110049,243.7899803110049,243.99981734802714,None,0,,,,,sub-septest,ses-main,run-1,grey,2024-04-24_11h44.32.912,VDT,2023.2.3,121.0155098483288,2024-04-24 11h44.41.351736 +0200,
./images_beh/Sphere_Ref_BG-grey_stim-white.png,0,242,242,242,244.05324209399987,,,,,,,,,,244.0012930519879,244.05324209399987,244.05324209399987,244.79394147003768,244.80332287203055,245.01412493904354,None,0,,,,,sub-septest,ses-main,run-1,grey,2024-04-24_11h44.32.912,VDT,2023.2.3,121.0155098483288,2024-04-24 11h44.41.351736 +0200,
./images_beh/Sphere_CCW-3.75_BG-grey_stim-white.png,0,243,243,243,245.06041404703865,,,,,,,,,,245.0147477980354,245.06041404703865,245.06041404703865,245.7920934210415,245.80971904704347,246.00202841602731,None,0,,,,,sub-septest,ses-main,run-1,grey,2024-04-24_11h44.32.912,VDT,2023.2.3,121.0155098483288,2024-04-24 11h44.41.351736 +0200,
./images_beh/Sphere_CW-3.75_BG-grey_stim-white.png,0,244,244,244,246.05227226001443,,,,,,,,,,246.00263064703904,246.05227226001443,246.05227226001443,246.7898998450255,246.7979726800113,246.9830961250118,None,0,,,,,sub-septest,ses-main,run-1,grey,2024-04-24_11h44.32.912,VDT,2023.2.3,121.0155098483288,2024-04-24 11h44.41.351736 +0200,
./images_beh/Sphere_CCW-3.75_BG-grey_stim-white.png,0,245,245,245,247.0263051550137,,,,,,,,,,246.9838521660422,247.04046304803342,247.04046304803342,247.78891928400844,247.78891928400844,247.9560861500213,None,0,,,,,sub-septest,ses-main,run-1,grey,2024-04-24_11h44.32.912,VDT,2023.2.3,121.0155098483288,2024-04-24 11h44.41.351736 +0200,
./images_beh/Sphere_Ref_BG-grey_stim-white.png,0,246,246,246,248.0073465470341,,,,,,,,,,247.95680206699762,248.03869368502637,248.03869368502637,248.78770294599235,248.78055280604167,249.03425418998813,None,0,,,,,sub-septest,ses-main,run-1,grey,2024-04-24_11h44.32.912,VDT,2023.2.3,121.0155098483288,2024-04-24 11h44.41.351736 +0200,
./images_beh/Sphere_CW-3.75_BG-grey_stim-white.png,0,247,247,247,249.08427365199896,,,,,,,,,,249.0349822290009,249.08427365199896,249.08427365199896,249.78869045502506,249.82499299303163,250.0316566519905,None,0,250.03068567201262,,,,sub-septest,ses-main,run-1,grey,2024-04-24_11h44.32.912,VDT,2023.2.3,121.0155098483288,2024-04-24 11h44.41.351736 +0200,
./images_beh/Sphere_CW-3.75_BG-grey_stim-white.png,0,248,248,248,250.08156624401454,,,,,,,,,,250.03241101803724,250.08156624401454,250.08156624401454,250.7888549370109,250.82519325101748,251.03112714900635,None,0,251.0303891900112,,,,sub-septest,ses-main,run-1,grey,2024-04-24_11h44.32.912,VDT,2023.2.3,121.0155098483288,2024-04-24 11h44.41.351736 +0200,
./images_beh/Sphere_CW-3.75_BG-grey_stim-white.png,0,249,249,249,251.07945173804183,,,,,,,,,,251.03170848003356,251.07945173804183,251.07945173804183,251.79654171003494,251.8215636649984,251.96668654103996,None,0,,,,,sub-septest,ses-main,run-1,grey,2024-04-24_11h44.32.912,VDT,2023.2.3,121.0155098483288,2024-04-24 11h44.41.351736 +0200,
./images_beh/Sphere_CW-3.75_BG-grey_stim-white.png,0,250,250,250,252.00849325803574,,,,,,,,,,251.96715457102982,252.0467525650165,252.0467525650165,252.79616905900184,252.78582585399272,252.97107675403822,None,0,,,,,sub-septest,ses-main,run-1,grey,2024-04-24_11h44.32.912,VDT,2023.2.3,121.0155098483288,2024-04-24 11h44.41.351736 +0200,
./images_beh/Sphere_CCW-3.75_BG-grey_stim-white.png,0,251,251,251,253.0138388799969,,,,,,,,,,252.9715762429987,253.04632284800755,253.04632284800755,253.79939191800077,253.79939191800077,254.00443420902593,None,0,,,,,sub-septest,ses-main,run-1,grey,2024-04-24_11h44.32.912,VDT,2023.2.3,121.0155098483288,2024-04-24 11h44.41.351736 +0200,
./images_beh/Sphere_CCW-3.75_BG-grey_stim-white.png,0,252,252,252,254.0519110810128,,,,,,,,,,254.00516429403797,254.0519110810128,254.0519110810128,254.79564839799423,254.79564839799423,254.98802997800522,None,0,,,,,sub-septest,ses-main,run-1,grey,2024-04-24_11h44.32.912,VDT,2023.2.3,121.0155098483288,2024-04-24 11h44.41.351736 +0200,
./images_beh/Sphere_CW-3.75_BG-grey_stim-white.png,0,253,253,253,255.0354109200416,,,,,,,,,,254.98853682202753,255.0450631970307,255.0450631970307,255.79557712603128,255.78645484603476,255.9977521370165,None,0,,,,,sub-septest,ses-main,run-1,grey,2024-04-24_11h44.32.912,VDT,2023.2.3,121.0155098483288,2024-04-24 11h44.41.351736 +0200,
./images_beh/Sphere_Ref_BG-grey_stim-white.png,0,254,254,254,256.0463025349891,,,,,,,,,,255.99849345802795,256.0463025349891,256.0463025349891,256.79515205603093,256.78501595003763,257.0134828889859,None,0,,,,,sub-septest,ses-main,run-1,grey,2024-04-24_11h44.32.912,VDT,2023.2.3,121.0155098483288,2024-04-24 11h44.41.351736 +0200,
./images_beh/Sphere_CCW-3.75_BG-grey_stim-white.png,0,255,255,255,257.0637763130362,,,,,,,,,,257.0144474430126,257.0637763130362,257.0637763130362,257.798134777986,257.806823284016,257.9868740050006,None,0,,,,,sub-septest,ses-main,run-1,grey,2024-04-24_11h44.32.912,VDT,2023.2.3,121.0155098483288,2024-04-24 11h44.41.351736 +0200,
./images_beh/Sphere_CW-3.75_BG-grey_stim-white.png,0,256,256,256,258.0348497439991,,,,,,,,,,257.9875830709934,258.04536531004123,258.04536531004123,258.79699914803496,258.7845420690137,259.00360188499326,None,0,,,,,sub-septest,ses-main,run-1,grey,2024-04-24_11h44.32.912,VDT,2023.2.3,121.0155098483288,2024-04-24 11h44.41.351736 +0200,
./images_beh/Sphere_Ref_BG-grey_stim-white.png,0,257,257,257,259.0526827520225,,,,,,,,,,259.0047416870366,259.0526827520225,259.0526827520225,259.7944598130416,259.802306942991,259.99512536398834,None,0,,,,,sub-septest,ses-main,run-1,grey,2024-04-24_11h44.32.912,VDT,2023.2.3,121.0155098483288,2024-04-24 11h44.41.351736 +0200,
./images_beh/Sphere_CCW-3.75_BG-grey_stim-white.png,0,258,258,258,260.0507841940271,,,,,,,,,,259.99622520798584,260.0507841940271,260.0507841940271,260.7939164499985,260.7939164499985,260.9851341629983,None,0,,,,,sub-septest,ses-main,run-1,grey,2024-04-24_11h44.32.912,VDT,2023.2.3,121.0155098483288,2024-04-24 11h44.41.351736 +0200,
./images_beh/Sphere_CW-3.75_BG-grey_stim-white.png,0,259,259,259,261.0262293900014,,,,,,,,,,260.9858790230355,261.0438414129894,261.0438414129894,261.7940697600134,261.7829839090118,262.01268059399445,None,0,,,,,sub-septest,ses-main,run-1,grey,2024-04-24_11h44.32.912,VDT,2023.2.3,121.0155098483288,2024-04-24 11h44.41.351736 +0200,
./images_beh/Sphere_CCW-3.75_BG-grey_stim-white.png,0,260,260,260,262.0584624460316,,,,,,,,,,262.01354682201054,262.0584624460316,262.0584624460316,262.7941207200056,262.8016751210089,263.0201907380251,None,0,,,,,sub-septest,ses-main,run-1,grey,2024-04-24_11h44.32.912,VDT,2023.2.3,121.0155098483288,2024-04-24 11h44.41.351736 +0200,
./images_beh/Sphere_CW-3.75_BG-grey_stim-white.png,0,261,261,261,263.0701949489885,,,,,,,,,,263.02091992500937,263.0701949489885,263.0701949489885,263.7961279480369,263.81731678399956,264.01996877603233,None,0,,,,,sub-septest,ses-main,run-1,grey,2024-04-24_11h44.32.912,VDT,2023.2.3,121.0155098483288,2024-04-24 11h44.41.351736 +0200,
./images_beh/Sphere_Ref_BG-grey_stim-white.png,0,262,262,262,264.07497409102507,,,,,,,,,,264.02068997803144,264.07497409102507,264.07497409102507,264.7933100560331,264.8269557360327,264.95181467803195,None,0,,,,,sub-septest,ses-main,run-1,grey,2024-04-24_11h44.32.912,VDT,2023.2.3,121.0155098483288,2024-04-24 11h44.41.351736 +0200,
./images_beh/Sphere_CCW-3.75_BG-grey_stim-white.png,0,263,263,263,264.9957681730157,,,,,,,,,,264.9525486960192,265.04279654001584,265.04279654001584,265.7929161450011,265.78458600502927,265.9765781770111,None,0,,,,,sub-septest,ses-main,run-1,grey,2024-04-24_11h44.32.912,VDT,2023.2.3,121.0155098483288,2024-04-24 11h44.41.351736 +0200,
./images_beh/Sphere_CW-3.75_BG-grey_stim-white.png,0,264,264,264,266.02146469801664,,,,,,,,,,265.9770449009957,266.0424234280363,266.0424234280363,266.79279624600895,266.78191215603147,267.02716579299886,None,0,,,,,sub-septest,ses-main,run-1,grey,2024-04-24_11h44.32.912,VDT,2023.2.3,121.0155098483288,2024-04-24 11h44.41.351736 +0200,
./images_beh/Sphere_Ref_BG-grey_stim-white.png,0,265,265,265,267.07812239800114,,,,,,,,,,267.02789405401563,267.07812239800114,267.07812239800114,267.792182545003,267.84220023301896,267.97663938603364,None,0,,,,,sub-septest,ses-main,run-1,grey,2024-04-24_11h44.32.912,VDT,2023.2.3,121.0155098483288,2024-04-24 11h44.41.351736 +0200,
./images_beh/Sphere_CCW-3.75_BG-grey_stim-white.png,0,266,266,266,268.023147778993,,,,,,,,,,267.9772413620376,268.0485601500259,268.0485601500259,268.8002009789925,268.8002009789925,269.0257408930338,None,0,,,,,sub-septest,ses-main,run-1,grey,2024-04-24_11h44.32.912,VDT,2023.2.3,121.0155098483288,2024-04-24 11h44.41.351736 +0200,
./images_beh/Sphere_CW-3.75_BG-grey_stim-white.png,0,267,267,267,269.06624695600476,,,,,,,,,,269.0264091370045,269.06624695600476,269.06624695600476,269.7922848300077,269.8251805930049,270.03183072200045,None,0,270.03090294700814,,,,sub-septest,ses-main,run-1,grey,2024-04-24_11h44.32.912,VDT,2023.2.3,121.0155098483288,2024-04-24 11h44.41.351736 +0200,
./images_beh/Sphere_CW-3.75_BG-grey_stim-white.png,0,268,268,268,270.08550470502814,,,,,,,,,,270.03259165299824,270.08550470502814,270.08550470502814,270.7914221420069,270.82698797102785,271.0261271049967,None,0,,,,,sub-septest,ses-main,run-1,grey,2024-04-24_11h44.32.912,VDT,2023.2.3,121.0155098483288,2024-04-24 11h44.41.351736 +0200,
./images_beh/Sphere_CCW-3.75_BG-grey_stim-white.png,0,269,269,269,271.07147411903134,,,,,,,,,,271.0271094710333,271.07147411903134,271.07147411903134,271.7912222809973,271.84190067101736,272.0259047719883,None,0,,,,,sub-septest,ses-main,run-1,grey,2024-04-24_11h44.32.912,VDT,2023.2.3,121.0155098483288,2024-04-24 11h44.41.351736 +0200,
