image,trials.thisRepN,trials.thisTrialN,trials.thisN,trials.thisIndex,thisRow.t,notes,WaitingForScannerTrigger.started,Vertical.started,key_resp.started,WaitingForScannerTrigger.stopped,key_resp.keys,key_resp.corr,key_resp.rt,key_resp.duration,VDT.started,PresentedLine1.started,key_resp_2.started,FixDot2.started,PresentedLine1.stopped,VDT.stopped,key_resp_2.keys,key_resp_2.corr,key_resp_2.rt,key_resp_2.duration,FixDot2.stopped,key_resp_2.stopped,participant,session,run,BG_color,date,expName,psychopyVersion,frameRate,expStart,
,,,,,,,0.004122112994082272,0.009505825990345329,0.009505825990345329,6.057900307991076,s,0,6.0087002469808795,None,,,,,,,,,,,,,sub-003,ses-control-base-l-2,run-1,grey,2024-04-25_13h52.07.159,VDT,2023.2.3,None,2024-04-25 13h52.25.604167 +0200,
./images_beh/Sphere_CW-1.5_BG-grey_stim-white.png,0,0,0,0,6.121621794998646,,,,,,,,,,6.077586964005604,6.121621794998646,6.121621794998646,6.805680460995063,6.861462094995659,7.013435347995255,None,0,,,,,sub-003,ses-control-base-l-2,run-1,grey,2024-04-25_13h52.07.159,VDT,2023.2.3,None,2024-04-25 13h52.25.604167 +0200,
./images_beh/Sphere_CCW-1.5_BG-grey_stim-white.png,0,1,1,1,7.066457659995649,,,,,,,,,,7.014716569974553,7.066457659995649,7.066457659995649,7.804970405006316,7.810868817963637,8.005613357003313,None,0,,,,,sub-003,ses-control-base-l-2,run-1,grey,2024-04-25_13h52.07.159,VDT,2023.2.3,None,2024-04-25 13h52.25.604167 +0200,
./images_beh/Sphere_CW-1.5_BG-grey_stim-yellow.png,0,2,2,2,8.05097196099814,,,,,,,,,,8.006534822983667,8.055515176965855,8.055515176965855,8.804689406999387,8.793474407983012,9.028434004983865,['space'],0,0.3803640890400857,None,,,sub-003,ses-control-base-l-2,run-1,grey,2024-04-25_13h52.07.159,VDT,2023.2.3,None,2024-04-25 13h52.25.604167 +0200,
./images_beh/Sphere_CCW-1.5_BG-grey_stim-white.png,0,3,3,3,9.076102537976112,,,,,,,,,,9.030859888996929,9.076102537976112,9.076102537976112,9.80423243297264,9.82058939896524,9.994681569980457,None,0,,,,,sub-003,ses-control-base-l-2,run-1,grey,2024-04-25_13h52.07.159,VDT,2023.2.3,None,2024-04-25 13h52.25.604167 +0200,
./images_beh/Sphere_CCW-1.5_BG-grey_stim-white.png,0,4,4,4,10.038876511971466,,,,,,,,,,9.995402166969143,10.059459180978592,10.059459180978592,10.80290824896656,10.807864911970682,10.986853795999195,None,0,,,,,sub-003,ses-control-base-l-2,run-1,grey,2024-04-25_13h52.07.159,VDT,2023.2.3,None,2024-04-25 13h52.25.604167 +0200,
./images_beh/Sphere_CW-1.5_BG-grey_stim-white.png,0,5,5,5,11.020862097968347,,,,,,,,,,10.987275508989114,11.05270461901091,11.05270461901091,11.805421744997147,11.79213732999051,12.0264323669835,None,0,,,,,sub-003,ses-control-base-l-2,run-1,grey,2024-04-25_13h52.07.159,VDT,2023.2.3,None,2024-04-25 13h52.25.604167 +0200,
./images_beh/Sphere_CCW-1.5_BG-grey_stim-yellow.png,0,6,6,6,12.071494897012599,,,,,,,,,,12.027012859995011,12.071494897012599,12.071494897012599,12.810496385965962,12.819157471996732,13.002601429005153,['space'],0,0.4523931340081617,None,,,sub-003,ses-control-base-l-2,run-1,grey,2024-04-25_13h52.07.159,VDT,2023.2.3,None,2024-04-25 13h52.25.604167 +0200,
./images_beh/Sphere_CW-1.5_BG-grey_stim-white.png,0,7,7,7,13.040073071955703,,,,,,,,,,13.003300233976915,13.05778906098567,13.05778906098567,13.80951346096117,13.80951346096117,13.970250114973169,None,0,,,,,sub-003,ses-control-base-l-2,run-1,grey,2024-04-25_13h52.07.159,VDT,2023.2.3,None,2024-04-25 13h52.25.604167 +0200,
./images_beh/Sphere_CCW-1.5_BG-grey_stim-white.png,0,8,8,8,14.017214483988937,,,,,,,,,,13.971046349965036,14.058231944974978,14.058231944974978,14.804216591990553,14.804216591990553,15.003056608955376,None,0,,,,,sub-003,ses-control-base-l-2,run-1,grey,2024-04-25_13h52.07.159,VDT,2023.2.3,None,2024-04-25 13h52.25.604167 +0200,
./images_beh/Sphere_Ref_BG-grey_stim-white.png,0,9,9,9,15.049715582979843,,,,,,,,,,15.003892879991326,15.055322865955532,15.055322865955532,15.821735697973054,15.803679003962316,16.0096845299704,None,0,,,,,sub-003,ses-control-base-l-2,run-1,grey,2024-04-25_13h52.07.159,VDT,2023.2.3,None,2024-04-25 13h52.25.604167 +0200,
./images_beh/Sphere_Ref_BG-grey_stim-yellow.png,0,10,10,10,16.062531875970308,,,,,,,,,,16.010456369956955,16.062531875970308,16.062531875970308,16.800365559989586,16.806744272005744,17.00248464901233,['space'],0,0.4237974400166422,None,,,sub-003,ses-control-base-l-2,run-1,grey,2024-04-25_13h52.07.159,VDT,2023.2.3,None,2024-04-25 13h52.25.604167 +0200,
./images_beh/Sphere_CCW-1.5_BG-grey_stim-white.png,0,11,11,11,17.051249593961984,,,,,,,,,,17.003472315962426,17.05660823895596,17.05660823895596,17.805372471979354,17.805372471979354,17.989645488967653,None,0,,,,,sub-003,ses-control-base-l-2,run-1,grey,2024-04-25_13h52.07.159,VDT,2023.2.3,None,2024-04-25 13h52.25.604167 +0200,
./images_beh/Sphere_Ref_BG-grey_stim-white.png,0,12,12,12,18.029916508006863,,,,,,,,,,17.990118821966462,18.055298223975115,18.055298223975115,18.805585759982932,18.799235596961807,18.983604258974083,None,0,,,,,sub-003,ses-control-base-l-2,run-1,grey,2024-04-25_13h52.07.159,VDT,2023.2.3,None,2024-04-25 13h52.25.604167 +0200,
./images_beh/Sphere_CW-1.5_BG-grey_stim-white.png,0,13,13,13,19.0311114579672,,,,,,,,,,18.9849161930033,19.054307774989866,19.054307774989866,19.806484345986973,19.79851442895597,20.0324759639916,None,0,,,,,sub-003,ses-control-base-l-2,run-1,grey,2024-04-25_13h52.07.159,VDT,2023.2.3,None,2024-04-25 13h52.25.604167 +0200,
./images_beh/Sphere_Ref_BG-grey_stim-yellow.png,0,14,14,14,20.089192153012846,,,,,,,,,,20.033186759974342,20.089192153012846,20.089192153012846,20.8000299569685,20.835605842003133,21.004787268990185,['space'],0,0.46567590697668493,None,,,sub-003,ses-control-base-l-2,run-1,grey,2024-04-25_13h52.07.159,VDT,2023.2.3,None,2024-04-25 13h52.25.604167 +0200,
./images_beh/Sphere_CCW-1.5_BG-grey_stim-white.png,0,15,15,15,21.061963430955075,,,,,,,,,,21.005529535003006,21.061963430955075,21.061963430955075,21.80301764397882,21.80301764397882,22.048306008975487,None,0,,,22.047639651980717,,sub-003,ses-control-base-l-2,run-1,grey,2024-04-25_13h52.07.159,VDT,2023.2.3,None,2024-04-25 13h52.25.604167 +0200,
./images_beh/Sphere_CW-1.5_BG-grey_stim-white.png,0,16,16,16,22.087092436966486,,,,,,,,,,22.04889945400646,22.087092436966486,22.087092436966486,22.802683766989503,22.835563514963724,22.980751512979623,None,0,,,,,sub-003,ses-control-base-l-2,run-1,grey,2024-04-25_13h52.07.159,VDT,2023.2.3,None,2024-04-25 13h52.25.604167 +0200,
./images_beh/Sphere_CW-1.5_BG-grey_stim-white.png,0,17,17,17,23.01536793698324,,,,,,,,,,22.98113844700856,23.052179371996317,23.052179371996317,23.80461919895606,23.79717851895839,24.021143951977137,None,0,,,,,sub-003,ses-control-base-l-2,run-1,grey,2024-04-25_13h52.07.159,VDT,2023.2.3,None,2024-04-25 13h52.25.604167 +0200,
./images_beh/Sphere_CCW-1.5_BG-grey_stim-white.png,0,18,18,18,24.070041363011114,,,,,,,,,,24.021874719997868,24.070041363011114,24.070041363011114,24.80451508500846,24.813145224994514,25.020111528981943,None,0,,,,,sub-003,ses-control-base-l-2,run-1,grey,2024-04-25_13h52.07.159,VDT,2023.2.3,None,2024-04-25 13h52.25.604167 +0200,
./images_beh/Sphere_CW-1.5_BG-grey_stim-white.png,0,19,19,19,25.06473481399007,,,,,,,,,,25.020711893972475,25.06473481399007,25.06473481399007,25.803987686987966,25.812754496990237,25.996841068961658,None,0,,,,,sub-003,ses-control-base-l-2,run-1,grey,2024-04-25_13h52.07.159,VDT,2023.2.3,None,2024-04-25 13h52.25.604167 +0200,
./images_beh/Sphere_CCW-1.5_BG-grey_stim-yellow.png,0,20,20,20,26.043568624008913,,,,,,,,,,25.99789638700895,26.04924789495999,26.04924789495999,26.80273145897081,26.79546950996155,26.969655865977984,['space'],0,0.42723267897963524,None,,,sub-003,ses-control-base-l-2,run-1,grey,2024-04-25_13h52.07.159,VDT,2023.2.3,None,2024-04-25 13h52.25.604167 +0200,
./images_beh/Sphere_CW-1.5_BG-grey_stim-white.png,0,21,21,21,27.01810393197229,,,,,,,,,,26.97066019999329,27.051352323964238,27.051352323964238,27.80192789499415,27.795329400978517,27.97902944299858,None,0,,,,,sub-003,ses-control-base-l-2,run-1,grey,2024-04-25_13h52.07.159,VDT,2023.2.3,None,2024-04-25 13h52.25.604167 +0200,
./images_beh/Sphere_CW-1.5_BG-grey_stim-white.png,0,22,22,22,28.025438272976317,,,,,,,,,,27.980256990995258,28.04987223999342,28.04987223999342,28.800377115956508,28.79431328800274,28.99567124596797,None,0,,,,,sub-003,ses-control-base-l-2,run-1,grey,2024-04-25_13h52.07.159,VDT,2023.2.3,None,2024-04-25 13h52.25.604167 +0200,
./images_beh/Sphere_CCW-1.5_BG-grey_stim-white.png,0,23,23,23,29.03934467997169,,,,,,,,,,28.996389200969134,29.04943072696915,29.04943072696915,29.80035933398176,29.793988040008117,29.994849130976945,None,0,,,,,sub-003,ses-control-base-l-2,run-1,grey,2024-04-25_13h52.07.159,VDT,2023.2.3,None,2024-04-25 13h52.25.604167 +0200,
./images_beh/Sphere_CW-1.5_BG-grey_stim-white.png,0,24,24,24,30.04230170795927,,,,,,,,,,29.995962830958888,30.047980982984882,30.047980982984882,30.810475590988062,30.796259113005362,30.96144073299365,None,0,,,,,sub-003,ses-control-base-l-2,run-1,grey,2024-04-25_13h52.07.159,VDT,2023.2.3,None,2024-04-25 13h52.25.604167 +0200,
./images_beh/Sphere_Ref_BG-grey_stim-yellow.png,0,25,25,25,31.00769797398243,,,,,,,,,,30.962224729009904,31.049704233009834,31.049704233009834,31.799917779979296,31.799917779979296,31.979119230003562,['space'],0,0.45830626401584595,None,,,sub-003,ses-control-base-l-2,run-1,grey,2024-04-25_13h52.07.159,VDT,2023.2.3,None,2024-04-25 13h52.25.604167 +0200,
./images_beh/Sphere_Ref_BG-grey_stim-white.png,0,26,26,26,32.024797841964755,,,,,,,,,,31.980071064957883,32.0481841879664,32.0481841879664,32.80028239201056,32.80028239201056,33.01048389496282,None,0,,,,,sub-003,ses-control-base-l-2,run-1,grey,2024-04-25_13h52.07.159,VDT,2023.2.3,None,2024-04-25 13h52.25.604167 +0200,
./images_beh/Sphere_CW-1.5_BG-grey_stim-white.png,0,27,27,27,33.059455335955136,,,,,,,,,,33.011266411980614,33.059455335955136,33.059455335955136,33.79905282496475,33.80897247395478,34.03319598198868,None,0,,,,,sub-003,ses-control-base-l-2,run-1,grey,2024-04-25_13h52.07.159,VDT,2023.2.3,None,2024-04-25 13h52.25.604167 +0200,
./images_beh/Sphere_CCW-1.5_BG-grey_stim-white.png,0,28,28,28,34.08029847196303,,,,,,,,,,34.03404971800046,34.08029847196303,34.08029847196303,34.79977754596621,34.82485119899502,35.042742383957375,None,0,,,,,sub-003,ses-control-base-l-2,run-1,grey,2024-04-25_13h52.07.159,VDT,2023.2.3,None,2024-04-25 13h52.25.604167 +0200,
./images_beh/Sphere_CCW-1.5_BG-grey_stim-white.png,0,29,29,29,35.090448480972555,,,,,,,,,,35.0435125369695,35.090448480972555,35.090448480972555,35.80750032700598,35.83061765000457,36.06515999697149,None,0,,,36.05770778300939,,sub-003,ses-control-base-l-2,run-1,grey,2024-04-25_13h52.07.159,VDT,2023.2.3,None,2024-04-25 13h52.25.604167 +0200,
./images_beh/Sphere_CW-1.5_BG-grey_stim-yellow.png,0,30,30,30,36.11638680298347,,,,,,,,,,36.065971731964964,36.11638680298347,36.11638680298347,36.806359177979175,36.862412269983906,37.01322694501141,['space'],0,0.41521948302397504,None,,,sub-003,ses-control-base-l-2,run-1,grey,2024-04-25_13h52.07.159,VDT,2023.2.3,None,2024-04-25 13h52.25.604167 +0200,
./images_beh/Sphere_CCW-1.5_BG-grey_stim-white.png,0,31,31,31,37.054751025978476,,,,,,,,,,37.014116137987,37.054751025978476,37.054751025978476,37.80626503296662,37.793963971955236,38.06375903298613,None,0,,,,,sub-003,ses-control-base-l-2,run-1,grey,2024-04-25_13h52.07.159,VDT,2023.2.3,None,2024-04-25 13h52.25.604167 +0200,
./images_beh/Sphere_Ref_BG-grey_stim-white.png,0,32,32,32,38.10241023398703,,,,,,,,,,38.06423116498627,38.10241023398703,38.10241023398703,38.80581143498421,38.844872704008594,38.97259512200253,None,0,,,,,sub-003,ses-control-base-l-2,run-1,grey,2024-04-25_13h52.07.159,VDT,2023.2.3,None,2024-04-25 13h52.25.604167 +0200,
./images_beh/Sphere_Ref_BG-grey_stim-yellow.png,0,33,33,33,39.00421477400232,,,,,,,,,,38.97297378198709,39.0560736929765,39.0560736929765,39.805843467009254,39.794324331975076,39.99641312396852,['space'],0,0.4187349950079806,None,,,sub-003,ses-control-base-l-2,run-1,grey,2024-04-25_13h52.07.159,VDT,2023.2.3,None,2024-04-25 13h52.25.604167 +0200,
./images_beh/Sphere_CCW-1.5_BG-grey_stim-white.png,0,34,34,34,40.04480206099106,,,,,,,,,,39.99771284597227,40.055086285981815,40.055086285981815,40.80437293398427,40.792774512956385,40.96160422399407,None,0,,,,,sub-003,ses-control-base-l-2,run-1,grey,2024-04-25_13h52.07.159,VDT,2023.2.3,None,2024-04-25 13h52.25.604167 +0200,
./images_beh/Sphere_CW-1.5_BG-grey_stim-white.png,0,35,35,35,41.00460430700332,,,,,,,,,,40.96221318800235,41.05502364796121,41.05502364796121,41.804596795002,41.79247505997773,41.99473984900396,None,0,,,,,sub-003,ses-control-base-l-2,run-1,grey,2024-04-25_13h52.07.159,VDT,2023.2.3,None,2024-04-25 13h52.25.604167 +0200,
./images_beh/Sphere_CCW-1.5_BG-grey_stim-white.png,0,36,36,36,42.03775872197002,,,,,,,,,,41.995331737969536,42.05387386697112,42.05387386697112,42.804258310992736,42.792180060991086,43.00467493396718,None,0,,,,,sub-003,ses-control-base-l-2,run-1,grey,2024-04-25_13h52.07.159,VDT,2023.2.3,None,2024-04-25 13h52.25.604167 +0200,
./images_beh/Sphere_CCW-1.5_BG-grey_stim-white.png,0,37,37,37,43.049666379985865,,,,,,,,,,43.00573649100261,43.054385636991356,43.054385636991356,43.803483921976294,43.7925331669976,44.02770639100345,None,0,,,,,sub-003,ses-control-base-l-2,run-1,grey,2024-04-25_13h52.07.159,VDT,2023.2.3,None,2024-04-25 13h52.25.604167 +0200,
./images_beh/Sphere_CW-1.5_BG-grey_stim-white.png,0,38,38,38,44.07544232200598,,,,,,,,,,44.02843055600533,44.07544232200598,44.07544232200598,44.80320490599843,44.81976553995628,45.00976142199943,None,0,,,,,sub-003,ses-control-base-l-2,run-1,grey,2024-04-25_13h52.07.159,VDT,2023.2.3,None,2024-04-25 13h52.25.604167 +0200,
./images_beh/Sphere_Ref_BG-grey_stim-yellow.png,0,39,39,39,45.0558399920119,,,,,,,,,,45.01052511797752,45.0558399920119,45.0558399920119,45.80472423299216,45.80472423299216,46.05379868898308,['space'],0,0.42863696900894865,None,46.05248417000985,,sub-003,ses-control-base-l-2,run-1,grey,2024-04-25_13h52.07.159,VDT,2023.2.3,None,2024-04-25 13h52.25.604167 +0200,
./images_beh/Sphere_CCW-1.5_BG-grey_stim-white.png,0,40,40,40,46.102976072987076,,,,,,,,,,46.05502056196565,46.102976072987076,46.102976072987076,46.82172162696952,46.852312262984924,47.10619746998418,None,0,,,47.068589581991546,47.105426226975396,sub-003,ses-control-base-l-2,run-1,grey,2024-04-25_13h52.07.159,VDT,2023.2.3,None,2024-04-25 13h52.25.604167 +0200,
./images_beh/Sphere_CW-1.5_BG-grey_stim-white.png,0,41,41,41,47.15607565396931,,,,,,,,,,47.106925692991354,47.15607565396931,47.15607565396931,47.80169183999533,47.901400322967675,47.96970993396826,None,0,,,,,sub-003,ses-control-base-l-2,run-1,grey,2024-04-25_13h52.07.159,VDT,2023.2.3,None,2024-04-25 13h52.25.604167 +0200,
./images_beh/Sphere_CW-1.5_BG-grey_stim-yellow.png,0,42,42,42,48.01739374198951,,,,,,,,,,47.97045702498872,48.057428503991105,48.057428503991105,48.80660871899454,48.80660871899454,49.04188084497582,['space'],0,0.7305837000021711,None,,,sub-003,ses-control-base-l-2,run-1,grey,2024-04-25_13h52.07.159,VDT,2023.2.3,None,2024-04-25 13h52.25.604167 +0200,
./images_beh/Sphere_CCW-1.5_BG-grey_stim-white.png,0,43,43,43,49.08649586199317,,,,,,,,,,49.04264531598892,49.08649586199317,49.08649586199317,49.80854457500391,49.83390009996947,50.00799820601242,None,0,,,,,sub-003,ses-control-base-l-2,run-1,grey,2024-04-25_13h52.07.159,VDT,2023.2.3,None,2024-04-25 13h52.25.604167 +0200,
./images_beh/Sphere_CW-1.5_BG-grey_stim-white.png,0,44,44,44,50.05382135696709,,,,,,,,,,50.008686669985764,50.05382135696709,50.05382135696709,50.807535466970876,50.807535466970876,51.00853937800275,None,0,,,,,sub-003,ses-control-base-l-2,run-1,grey,2024-04-25_13h52.07.159,VDT,2023.2.3,None,2024-04-25 13h52.25.604167 +0200,
./images_beh/Sphere_CCW-1.5_BG-grey_stim-yellow.png,0,45,45,45,51.05807355698198,,,,,,,,,,51.009430622973014,51.05807355698198,51.05807355698198,51.81920298998011,51.81920298998011,51.98432001599576,['space'],0,0.42726124299224466,None,,,sub-003,ses-control-base-l-2,run-1,grey,2024-04-25_13h52.07.159,VDT,2023.2.3,None,2024-04-25 13h52.25.604167 +0200,
./images_beh/Sphere_CCW-1.5_BG-grey_stim-white.png,0,46,46,46,52.03046432498377,,,,,,,,,,51.985319352010265,52.055248162010685,52.055248162010685,52.8066628939705,52.79921101697255,53.01666772598401,None,0,,,,,sub-003,ses-control-base-l-2,run-1,grey,2024-04-25_13h52.07.159,VDT,2023.2.3,None,2024-04-25 13h52.25.604167 +0200,
./images_beh/Sphere_CW-1.5_BG-grey_stim-white.png,0,47,47,47,53.06408379599452,,,,,,,,,,53.01802889199462,53.06408379599452,53.06408379599452,53.817516211012844,53.817516211012844,54.01635886199074,None,0,,,,,sub-003,ses-control-base-l-2,run-1,grey,2024-04-25_13h52.07.159,VDT,2023.2.3,None,2024-04-25 13h52.25.604167 +0200,
./images_beh/Sphere_Ref_BG-grey_stim-yellow.png,0,48,48,48,54.066317025979515,,,,,,,,,,54.01736399100628,54.066317025979515,54.066317025979515,54.80623387097148,54.817429971997626,55.032277185004205,['space'],0,0.3940379900159314,None,,,sub-003,ses-control-base-l-2,run-1,grey,2024-04-25_13h52.07.159,VDT,2023.2.3,None,2024-04-25 13h52.25.604167 +0200,
./images_beh/Sphere_Ref_BG-grey_stim-white.png,0,49,49,49,55.07941474497784,,,,,,,,,,55.03346701199189,55.07941474497784,55.07941474497784,55.806465872970875,55.82287089701276,56.00443989195628,None,0,,,,,sub-003,ses-control-base-l-2,run-1,grey,2024-04-25_13h52.07.159,VDT,2023.2.3,None,2024-04-25 13h52.25.604167 +0200,
./images_beh/Sphere_Ref_BG-grey_stim-white.png,0,50,50,50,56.047768494987395,,,,,,,,,,56.005024148966186,56.06391613697633,56.06391613697633,56.804533057962544,56.804533057962544,57.00097575597465,None,0,,,,,sub-003,ses-control-base-l-2,run-1,grey,2024-04-25_13h52.07.159,VDT,2023.2.3,None,2024-04-25 13h52.25.604167 +0200,
./images_beh/Sphere_CW-1.5_BG-grey_stim-white.png,0,51,51,51,57.04772311600391,,,,,,,,,,57.00171414698707,57.06370381900342,57.06370381900342,57.80324076098623,57.80324076098623,58.01441997196525,None,0,,,,,sub-003,ses-control-base-l-2,run-1,grey,2024-04-25_13h52.07.159,VDT,2023.2.3,None,2024-04-25 13h52.25.604167 +0200,
./images_beh/Sphere_CCW-1.5_BG-grey_stim-white.png,0,52,52,52,58.06245686695911,,,,,,,,,,58.01544709899463,58.06245686695911,58.06245686695911,58.80335237196414,58.80335237196414,58.96431757695973,None,0,,,,,sub-003,ses-control-base-l-2,run-1,grey,2024-04-25_13h52.07.159,VDT,2023.2.3,None,2024-04-25 13h52.25.604167 +0200,
./images_beh/Sphere_CW-1.5_BG-grey_stim-white.png,0,53,53,53,59.01305719796801,,,,,,,,,,58.96508572995663,59.05278956698021,59.05278956698021,59.80250110500492,59.795334215974435,60.02992356696632,None,0,,,,,sub-003,ses-control-base-l-2,run-1,grey,2024-04-25_13h52.07.159,VDT,2023.2.3,None,2024-04-25 13h52.25.604167 +0200,
./images_beh/Sphere_CW-1.5_BG-grey_stim-white.png,0,54,54,54,60.07923011796083,,,,,,,,,,60.03126165398862,60.07923011796083,60.07923011796083,60.81406279397197,60.82851993100485,60.986192311975174,None,0,,,,,sub-003,ses-control-base-l-2,run-1,grey,2024-04-25_13h52.07.159,VDT,2023.2.3,None,2024-04-25 13h52.25.604167 +0200,
./images_beh/Sphere_CW-1.5_BG-grey_stim-white.png,0,55,55,55,61.03349258197704,,,,,,,,,,60.9869138749782,61.050853469991125,61.050853469991125,61.80184495000867,61.79453150497284,62.029046960989945,None,0,,,,,sub-003,ses-control-base-l-2,run-1,grey,2024-04-25_13h52.07.159,VDT,2023.2.3,None,2024-04-25 13h52.25.604167 +0200,
./images_beh/Sphere_Ref_BG-grey_stim-white.png,0,56,56,56,62.076254029991105,,,,,,,,,,62.029890967998654,62.076254029991105,62.076254029991105,62.802796177973505,62.81851337000262,63.00183100497816,None,0,,,,,sub-003,ses-control-base-l-2,run-1,grey,2024-04-25_13h52.07.159,VDT,2023.2.3,None,2024-04-25 13h52.25.604167 +0200,
./images_beh/Sphere_Ref_BG-grey_stim-yellow.png,0,57,57,57,63.0495923999697,,,,,,,,,,63.00255920900963,63.06041880598059,63.06041880598059,63.801593212992884,63.801593212992884,64.0011101589771,['space'],0,0.5280568369780667,None,,,sub-003,ses-control-base-l-2,run-1,grey,2024-04-25_13h52.07.159,VDT,2023.2.3,None,2024-04-25 13h52.25.604167 +0200,
./images_beh/Sphere_CCW-1.5_BG-grey_stim-white.png,0,58,58,58,64.04732427699491,,,,,,,,,,64.00205126398942,64.05971043597674,64.05971043597674,64.81294244999299,64.81294244999299,65.027302501956,None,0,,,,,sub-003,ses-control-base-l-2,run-1,grey,2024-04-25_13h52.07.159,VDT,2023.2.3,None,2024-04-25 13h52.25.604167 +0200,
./images_beh/Sphere_CW-1.5_BG-grey_stim-white.png,0,59,59,59,65.07510948099662,,,,,,,,,,65.0285032929969,65.07510948099662,65.07510948099662,65.8005420769914,65.81605878495611,66.03391933697276,None,0,,,,,sub-003,ses-control-base-l-2,run-1,grey,2024-04-25_13h52.07.159,VDT,2023.2.3,None,2024-04-25 13h52.25.604167 +0200,
./images_beh/Sphere_CW-1.5_BG-grey_stim-white.png,0,60,60,60,66.08183765999274,,,,,,,,,,66.03464592498494,66.08183765999274,66.08183765999274,66.7998045529821,66.82524119695881,67.00954305398045,None,0,,,,,sub-003,ses-control-base-l-2,run-1,grey,2024-04-25_13h52.07.159,VDT,2023.2.3,None,2024-04-25 13h52.25.604167 +0200,
./images_beh/Sphere_CW-1.5_BG-grey_stim-yellow.png,0,61,61,61,67.05770172097255,,,,,,,,,,67.01090850000037,67.05770172097255,67.05770172097255,67.8108757979935,67.8108757979935,68.00065131200245,['space'],0,0.42710559198167175,None,,,sub-003,ses-control-base-l-2,run-1,grey,2024-04-25_13h52.07.159,VDT,2023.2.3,None,2024-04-25 13h52.25.604167 +0200,
./images_beh/Sphere_CCW-1.5_BG-grey_stim-white.png,0,62,62,62,68.03978502500104,,,,,,,,,,68.00120774598327,68.05735372001072,68.05735372001072,68.79813441896113,68.79813441896113,69.04209241998615,None,0,,,69.04070145997684,,sub-003,ses-control-base-l-2,run-1,grey,2024-04-25_13h52.07.159,VDT,2023.2.3,None,2024-04-25 13h52.25.604167 +0200,
./images_beh/Sphere_Ref_BG-grey_stim-white.png,0,63,63,63,69.09043100796407,,,,,,,,,,69.04330611595651,69.09043100796407,69.09043100796407,69.80729682097444,69.83031009999104,70.04189492895966,None,0,,,,,sub-003,ses-control-base-l-2,run-1,grey,2024-04-25_13h52.07.159,VDT,2023.2.3,None,2024-04-25 13h52.25.604167 +0200,
./images_beh/Sphere_CCW-1.5_BG-grey_stim-yellow.png,0,64,64,64,70.09186358796433,,,,,,,,,,70.04286640498322,70.09186358796433,70.09186358796433,70.80645681999158,70.83970666996902,71.03031395399012,['space'],0,0.5678865080117248,None,,,sub-003,ses-control-base-l-2,run-1,grey,2024-04-25_13h52.07.159,VDT,2023.2.3,None,2024-04-25 13h52.25.604167 +0200,
./images_beh/Sphere_CCW-1.5_BG-grey_stim-white.png,0,65,65,65,71.07439700496616,,,,,,,,,,71.0311567769968,71.07439700496616,71.07439700496616,71.80842964397743,71.82328017498367,71.99648398300633,None,0,,,,,sub-003,ses-control-base-l-2,run-1,grey,2024-04-25_13h52.07.159,VDT,2023.2.3,None,2024-04-25 13h52.25.604167 +0200,
./images_beh/Sphere_CCW-1.5_BG-grey_stim-white.png,0,66,66,66,72.04074462497374,,,,,,,,,,71.99722018599277,72.05555331800133,72.05555331800133,72.80538297398016,72.79530031397007,73.04448771401076,None,0,,,73.04379692097427,73.04379692097427,sub-003,ses-control-base-l-2,run-1,grey,2024-04-25_13h52.07.159,VDT,2023.2.3,None,2024-04-25 13h52.25.604167 +0200,
./images_beh/Sphere_CW-1.5_BG-grey_stim-white.png,0,67,67,67,73.08881608297816,,,,,,,,,,73.0450696189655,73.08881608297816,73.08881608297816,73.80489100300474,73.82890097197378,74.0291676519555,None,0,,,,,sub-003,ses-control-base-l-2,run-1,grey,2024-04-25_13h52.07.159,VDT,2023.2.3,None,2024-04-25 13h52.25.604167 +0200,
./images_beh/Sphere_CCW-1.5_BG-grey_stim-white.png,0,68,68,68,74.07820306596113,,,,,,,,,,74.02988737198757,74.07820306596113,74.07820306596113,74.80447967798682,74.82084326597396,74.99591778498143,None,0,,,,,sub-003,ses-control-base-l-2,run-1,grey,2024-04-25_13h52.07.159,VDT,2023.2.3,None,2024-04-25 13h52.25.604167 +0200,
./images_beh/Sphere_Ref_BG-grey_stim-yellow.png,0,69,69,69,75.04309097101213,,,,,,,,,,74.99663783697179,75.05404322600225,75.05404322600225,75.80409709498053,75.79287511395523,75.99364868097473,['space'],0,0.7681801909930073,None,,,sub-003,ses-control-base-l-2,run-1,grey,2024-04-25_13h52.07.159,VDT,2023.2.3,None,2024-04-25 13h52.25.604167 +0200,
./images_beh/Sphere_CCW-1.5_BG-grey_stim-white.png,0,70,70,70,76.03548242000397,,,,,,,,,,75.99429724097718,76.05853786197258,76.05853786197258,76.80340112099657,76.80340112099657,76.98729530500714,None,0,,,,,sub-003,ses-control-base-l-2,run-1,grey,2024-04-25_13h52.07.159,VDT,2023.2.3,None,2024-04-25 13h52.25.604167 +0200,
./images_beh/Sphere_CW-1.5_BG-grey_stim-white.png,0,71,71,71,77.03257568896515,,,,,,,,,,76.98848047596402,77.05292437400203,77.05292437400203,77.8027637929772,77.790854870982,78.02726704097586,None,0,,,,,sub-003,ses-control-base-l-2,run-1,grey,2024-04-25_13h52.07.159,VDT,2023.2.3,None,2024-04-25 13h52.25.604167 +0200,
./images_beh/Sphere_CW-1.5_BG-grey_stim-white.png,0,72,72,72,78.0759604430059,,,,,,,,,,78.028003230982,78.0759604430059,78.0759604430059,78.80227525299415,78.81902814598288,79.00545033399248,None,0,,,,,sub-003,ses-control-base-l-2,run-1,grey,2024-04-25_13h52.07.159,VDT,2023.2.3,None,2024-04-25 13h52.25.604167 +0200,
./images_beh/Sphere_CW-1.5_BG-grey_stim-white.png,0,73,73,73,79.05103820498334,,,,,,,,,,79.006187580002,79.0564057949814,79.0564057949814,79.80468714499148,79.80468714499148,80.02628399495734,None,0,,,,,sub-003,ses-control-base-l-2,run-1,grey,2024-04-25_13h52.07.159,VDT,2023.2.3,None,2024-04-25 13h52.25.604167 +0200,
./images_beh/Sphere_CCW-1.5_BG-grey_stim-white.png,0,74,74,74,80.07018249499379,,,,,,,,,,80.02687409200007,80.07018249499379,80.07018249499379,80.80123329296475,80.82056118996115,81.02106845099479,None,0,,,,,sub-003,ses-control-base-l-2,run-1,grey,2024-04-25_13h52.07.159,VDT,2023.2.3,None,2024-04-25 13h52.25.604167 +0200,
./images_beh/Sphere_Ref_BG-grey_stim-yellow.png,0,75,75,75,81.06916770897806,,,,,,,,,,81.02180715097347,81.06916770897806,81.06916770897806,81.80121576198144,81.82039488496957,82.02578631497454,['space'],0,0.39093730301829055,None,,,sub-003,ses-control-base-l-2,run-1,grey,2024-04-25_13h52.07.159,VDT,2023.2.3,None,2024-04-25 13h52.25.604167 +0200,
./images_beh/Sphere_CCW-1.5_BG-grey_stim-white.png,0,76,76,76,82.0741019769921,,,,,,,,,,82.02671311999438,82.0741019769921,82.0741019769921,82.80875450599706,82.8170084739686,83.02529435197357,None,0,,,,,sub-003,ses-control-base-l-2,run-1,grey,2024-04-25_13h52.07.159,VDT,2023.2.3,None,2024-04-25 13h52.25.604167 +0200,
./images_beh/Sphere_CCW-1.5_BG-grey_stim-white.png,0,77,77,77,83.07391128200106,,,,,,,,,,83.02602291799849,83.07391128200106,83.07391128200106,83.79936375998659,83.81661493697902,83.97026844200445,None,0,,,,,sub-003,ses-control-base-l-2,run-1,grey,2024-04-25_13h52.07.159,VDT,2023.2.3,None,2024-04-25 13h52.25.604167 +0200,
./images_beh/Sphere_CW-1.5_BG-grey_stim-white.png,0,78,78,78,84.01744946697727,,,,,,,,,,83.97099852201063,84.0561611209996,84.0561611209996,84.80680938495789,84.79960746801225,85.05530640698271,None,0,,,85.04921526100952,85.04921526100952,sub-003,ses-control-base-l-2,run-1,grey,2024-04-25_13h52.07.159,VDT,2023.2.3,None,2024-04-25 13h52.25.604167 +0200,
./images_beh/Sphere_CW-1.5_BG-grey_stim-white.png,0,79,79,79,85.10397902998375,,,,,,,,,,85.05602551397169,85.10397902998375,85.10397902998375,85.80668724299176,85.84864427696448,86.03984864900121,None,0,,,,,sub-003,ses-control-base-l-2,run-1,grey,2024-04-25_13h52.07.159,VDT,2023.2.3,None,2024-04-25 13h52.25.604167 +0200,
./images_beh/Sphere_CW-1.5_BG-grey_stim-yellow.png,0,80,80,80,86.08628845599014,,,,,,,,,,86.0405697709648,86.08628845599014,86.08628845599014,86.80720044398913,86.83529571600957,86.99889554799302,['space'],0,0.7335221800021827,None,,,sub-003,ses-control-base-l-2,run-1,grey,2024-04-25_13h52.07.159,VDT,2023.2.3,None,2024-04-25 13h52.25.604167 +0200,
./images_beh/Sphere_CW-1.5_BG-grey_stim-white.png,0,81,81,81,87.04092062299605,,,,,,,,,,87.00039277900942,87.04728015896399,87.04728015896399,87.80522905895486,87.7879226799705,88.08785203000298,None,0,,,88.05361368798185,88.04807973495917,sub-003,ses-control-base-l-2,run-1,grey,2024-04-25_13h52.07.159,VDT,2023.2.3,None,2024-04-25 13h52.25.604167 +0200,
./images_beh/Sphere_Ref_BG-grey_stim-white.png,0,82,82,82,88.13560806796886,,,,,,,,,,88.08858211495681,88.13560806796886,88.13560806796886,88.80573219998041,88.88083852001,88.98844819801161,None,0,,,,,sub-003,ses-control-base-l-2,run-1,grey,2024-04-25_13h52.07.159,VDT,2023.2.3,None,2024-04-25 13h52.25.604167 +0200,
./images_beh/Sphere_CCW-1.5_BG-grey_stim-white.png,0,83,83,83,89.03475624299608,,,,,,,,,,88.98917703697225,89.05324873200152,89.05324873200152,89.80128831998445,89.80128831998445,89.98447341797873,None,0,,,,,sub-003,ses-control-base-l-2,run-1,grey,2024-04-25_13h52.07.159,VDT,2023.2.3,None,2024-04-25 13h52.25.604167 +0200,
./images_beh/Sphere_CCW-1.5_BG-grey_stim-yellow.png,0,84,84,84,90.01981586200418,,,,,,,,,,89.98476517095696,90.0513437789632,90.0513437789632,90.80169078300241,90.79571745696012,91.0349586919765,['space'],0,0.4644864870351739,None,,,sub-003,ses-control-base-l-2,run-1,grey,2024-04-25_13h52.07.159,VDT,2023.2.3,None,2024-04-25 13h52.25.604167 +0200,
./images_beh/Sphere_CW-1.5_BG-grey_stim-white.png,0,85,85,85,91.07467180700041,,,,,,,,,,91.03551014699042,91.07467180700041,91.07467180700041,91.80328522098716,91.8186386069865,92.04646062897518,None,0,,,,,sub-003,ses-control-base-l-2,run-1,grey,2024-04-25_13h52.07.159,VDT,2023.2.3,None,2024-04-25 13h52.25.604167 +0200,
./images_beh/Sphere_CCW-1.5_BG-grey_stim-white.png,0,86,86,86,92.09174185397569,,,,,,,,,,92.04744488198776,92.09174185397569,92.09174185397569,92.80383812601212,92.83568360097706,92.97982409398537,None,0,,,,,sub-003,ses-control-base-l-2,run-1,grey,2024-04-25_13h52.07.159,VDT,2023.2.3,None,2024-04-25 13h52.25.604167 +0200,
./images_beh/Sphere_Ref_BG-grey_stim-yellow.png,0,87,87,87,93.0241767539992,,,,,,,,,,92.98060025495943,93.05052983999485,93.05052983999485,93.80126591399312,93.79455893300474,94.01226201100508,['space'],0,0.44932853401405737,None,,,sub-003,ses-control-base-l-2,run-1,grey,2024-04-25_13h52.07.159,VDT,2023.2.3,None,2024-04-25 13h52.25.604167 +0200,
./images_beh/Sphere_CCW-1.5_BG-grey_stim-white.png,0,88,88,88,94.06024026899831,,,,,,,,,,94.01360104896594,94.06024026899831,94.06024026899831,94.80151116498746,94.80151116498746,95.0014404169633,None,0,,,,,sub-003,ses-control-base-l-2,run-1,grey,2024-04-25_13h52.07.159,VDT,2023.2.3,None,2024-04-25 13h52.25.604167 +0200,
./images_beh/Sphere_Ref_BG-grey_stim-white.png,0,89,89,89,95.04447635496035,,,,,,,,,,95.00202794995857,95.06038064497989,95.06038064497989,95.80085329897702,95.80085329897702,96.04430903296452,None,0,,,96.04338627797551,,sub-003,ses-control-base-l-2,run-1,grey,2024-04-25_13h52.07.159,VDT,2023.2.3,None,2024-04-25 13h52.25.604167 +0200,
./images_beh/Sphere_CW-1.5_BG-grey_stim-white.png,0,90,90,90,96.09068143297918,,,,,,,,,,96.04517477296758,96.09068143297918,96.09068143297918,96.80135272297775,96.8328390129609,97.00069362000795,None,0,,,,,sub-003,ses-control-base-l-2,run-1,grey,2024-04-25_13h52.07.159,VDT,2023.2.3,None,2024-04-25 13h52.25.604167 +0200,
./images_beh/Sphere_Ref_BG-grey_stim-white.png,0,91,91,91,97.04702627297956,,,,,,,,,,97.00144371396163,97.05925016995752,97.05925016995752,97.79950489598559,97.79950489598559,98.0104244860122,None,0,,,,,sub-003,ses-control-base-l-2,run-1,grey,2024-04-25_13h52.07.159,VDT,2023.2.3,None,2024-04-25 13h52.25.604167 +0200,
./images_beh/Sphere_CCW-1.5_BG-grey_stim-white.png,0,92,92,92,98.05972637899686,,,,,,,,,,98.01141135796206,98.05972637899686,98.05972637899686,98.79880831600167,98.79880831600167,99.02618583699223,None,0,,,,,sub-003,ses-control-base-l-2,run-1,grey,2024-04-25_13h52.07.159,VDT,2023.2.3,None,2024-04-25 13h52.25.604167 +0200,
./images_beh/Sphere_CW-1.5_BG-grey_stim-yellow.png,0,93,93,93,99.0732605640078,,,,,,,,,,99.02724555099849,99.0732605640078,99.0732605640078,99.7984671019949,99.8141013860004,99.99356086598709,['space'],0,0.4267973900423385,None,,,sub-003,ses-control-base-l-2,run-1,grey,2024-04-25_13h52.07.159,VDT,2023.2.3,None,2024-04-25 13h52.25.604167 +0200,
./images_beh/Sphere_CCW-1.5_BG-grey_stim-white.png,0,94,94,94,100.04032747796737,,,,,,,,,,99.99460316100158,100.0459835639922,100.0459835639922,100.7976191949565,100.79102719697403,101.02546511997934,None,0,,,,,sub-003,ses-control-base-l-2,run-1,grey,2024-04-25_13h52.07.159,VDT,2023.2.3,None,2024-04-25 13h52.25.604167 +0200,
./images_beh/Sphere_CW-1.5_BG-grey_stim-white.png,0,95,95,95,101.07346863800194,,,,,,,,,,101.02655546896858,101.07346863800194,101.07346863800194,101.79866514896275,101.81387202796759,102.02481179201277,None,0,,,,,sub-003,ses-control-base-l-2,run-1,grey,2024-04-25_13h52.07.159,VDT,2023.2.3,None,2024-04-25 13h52.25.604167 +0200,
./images_beh/Sphere_CCW-1.5_BG-grey_stim-yellow.png,0,96,96,96,102.06876433000434,,,,,,,,,,102.02548650995595,102.06876433000434,102.06876433000434,102.79888250300428,102.81412742199609,103.07477016898338,['space'],0,0.4158759060082957,None,103.04596039198805,103.06178583798464,sub-003,ses-control-base-l-2,run-1,grey,2024-04-25_13h52.07.159,VDT,2023.2.3,None,2024-04-25 13h52.25.604167 +0200,
./images_beh/Sphere_CW-1.5_BG-grey_stim-white.png,0,97,97,97,103.12357025197707,,,,,,,,,,103.07583065499784,103.12357025197707,103.12357025197707,103.80640764796408,103.86224257800495,103.97376403096132,None,0,,,,,sub-003,ses-control-base-l-2,run-1,grey,2024-04-25_13h52.07.159,VDT,2023.2.3,None,2024-04-25 13h52.25.604167 +0200,
./images_beh/Sphere_Ref_BG-grey_stim-white.png,0,98,98,98,104.01268207095563,,,,,,,,,,103.97429165698122,104.05600527796196,104.05600527796196,104.80567542195786,104.795166700962,105.02986398199573,None,0,,,,,sub-003,ses-control-base-l-2,run-1,grey,2024-04-25_13h52.07.159,VDT,2023.2.3,None,2024-04-25 13h52.25.604167 +0200,
./images_beh/Sphere_CW-1.5_BG-grey_stim-white.png,0,99,99,99,105.07449965697015,,,,,,,,,,105.03045736200875,105.07449965697015,105.07449965697015,105.80534683098085,105.82194845698541,105.97265986195998,None,0,,,,,sub-003,ses-control-base-l-2,run-1,grey,2024-04-25_13h52.07.159,VDT,2023.2.3,None,2024-04-25 13h52.25.604167 +0200,
./images_beh/Sphere_Ref_BG-grey_stim-yellow.png,0,100,100,100,106.01713013800327,,,,,,,,,,105.97348712099483,106.05510864796815,106.05510864796815,106.80467549298191,106.79395252896938,106.97249510599067,['space'],0,0.4446237959782593,None,,,sub-003,ses-control-base-l-2,run-1,grey,2024-04-25_13h52.07.159,VDT,2023.2.3,None,2024-04-25 13h52.25.604167 +0200,
./images_beh/Sphere_CCW-1.5_BG-grey_stim-white.png,0,101,101,101,107.01859608700033,,,,,,,,,,106.97346928395564,107.05443551298231,107.05443551298231,107.80435594596202,107.79324029298732,108.07188753096852,None,0,,,108.04232287296327,108.04232287296327,sub-003,ses-control-base-l-2,run-1,grey,2024-04-25_13h52.07.159,VDT,2023.2.3,None,2024-04-25 13h52.25.604167 +0200,
./images_beh/Sphere_CW-1.5_BG-grey_stim-white.png,0,102,102,102,108.11655337997945,,,,,,,,,,108.07269216096029,108.11655337997945,108.11655337997945,108.80372260400327,108.85972013900755,109.05432690901216,None,0,,,109.04255373700289,,sub-003,ses-control-base-l-2,run-1,grey,2024-04-25_13h52.07.159,VDT,2023.2.3,None,2024-04-25 13h52.25.604167 +0200,
./images_beh/Sphere_Ref_BG-grey_stim-yellow.png,0,103,103,103,109.09998711297521,,,,,,,,,,109.0554430289776,109.09998711297521,109.09998711297521,109.80330034595681,109.84370588499587,110.02035364101175,['space'],0,0.41579261398874223,None,,,sub-003,ses-control-base-l-2,run-1,grey,2024-04-25_13h52.07.159,VDT,2023.2.3,None,2024-04-25 13h52.25.604167 +0200,
./images_beh/Sphere_CCW-1.5_BG-grey_stim-white.png,0,104,104,104,110.0630303779617,,,,,,,,,,110.02180245600175,110.0630303779617,110.0630303779617,110.80253944901051,110.80889214196941,111.0424770899699,None,0,,,111.04153274698183,,sub-003,ses-control-base-l-2,run-1,grey,2024-04-25_13h52.07.159,VDT,2023.2.3,None,2024-04-25 13h52.25.604167 +0200,
./images_beh/Sphere_CCW-1.5_BG-grey_stim-white.png,0,105,105,105,111.08853043999989,,,,,,,,,,111.04325120797148,111.08853043999989,111.08853043999989,111.80201425601263,111.8353113560006,112.02427676098887,None,0,,,,,sub-003,ses-control-base-l-2,run-1,grey,2024-04-25_13h52.07.159,VDT,2023.2.3,None,2024-04-25 13h52.25.604167 +0200,
./images_beh/Sphere_CW-1.5_BG-grey_stim-white.png,0,106,106,106,112.0597140659811,,,,,,,,,,112.02461234095972,112.0597140659811,112.0597140659811,112.80631418299163,112.80631418299163,113.03508867899654,None,0,,,,,sub-003,ses-control-base-l-2,run-1,grey,2024-04-25_13h52.07.159,VDT,2023.2.3,None,2024-04-25 13h52.25.604167 +0200,
./images_beh/Sphere_CCW-1.5_BG-grey_stim-white.png,0,107,107,107,113.07158529496519,,,,,,,,,,113.03563981398474,113.07158529496519,113.07158529496519,113.80678599496605,113.8175600959803,114.03466740698786,None,0,,,,,sub-003,ses-control-base-l-2,run-1,grey,2024-04-25_13h52.07.159,VDT,2023.2.3,None,2024-04-25 13h52.25.604167 +0200,
./images_beh/Sphere_CCW-1.5_BG-grey_stim-white.png,0,108,108,108,114.07013626297703,,,,,,,,,,114.03535351098981,114.07013626297703,114.07013626297703,114.80617970699677,114.81686478597112,115.01712413300993,None,0,,,,,sub-003,ses-control-base-l-2,run-1,grey,2024-04-25_13h52.07.159,VDT,2023.2.3,None,2024-04-25 13h52.25.604167 +0200,
./images_beh/Sphere_CW-1.5_BG-grey_stim-white.png,0,109,109,109,115.05066085897852,,,,,,,,,,115.01768797799014,115.05559317296138,115.05559317296138,115.8066003259737,115.80028332298389,116.0895916770096,None,0,,,116.06930660497164,116.06930660497164,sub-003,ses-control-base-l-2,run-1,grey,2024-04-25_13h52.07.159,VDT,2023.2.3,None,2024-04-25 13h52.25.604167 +0200,
./images_beh/Sphere_CW-1.5_BG-grey_stim-white.png,0,110,110,110,116.13787142396905,,,,,,,,,,116.09032547095558,116.13787142396905,116.13787142396905,116.80797652696492,116.88291965198005,117.00105426996015,None,0,,,,,sub-003,ses-control-base-l-2,run-1,grey,2024-04-25_13h52.07.159,VDT,2023.2.3,None,2024-04-25 13h52.25.604167 +0200,
./images_beh/Sphere_CCW-1.5_BG-grey_stim-yellow.png,0,111,111,111,117.04796220100252,,,,,,,,,,117.00180116901174,117.05281524697784,117.05281524697784,117.80460571596632,117.79872487898683,118.01595030800672,['space'],0,0.4953193159890361,None,,,sub-003,ses-control-base-l-2,run-1,grey,2024-04-25_13h52.07.159,VDT,2023.2.3,None,2024-04-25 13h52.25.604167 +0200,
./images_beh/Sphere_Ref_BG-grey_stim-white.png,0,112,112,112,118.0508902539732,,,,,,,,,,118.01670946599916,118.06485729297856,118.06485729297856,118.80436949199066,118.80436949199066,118.98201458796393,None,0,,,,,sub-003,ses-control-base-l-2,run-1,grey,2024-04-25_13h52.07.159,VDT,2023.2.3,None,2024-04-25 13h52.25.604167 +0200,
./images_beh/Sphere_CW-1.5_BG-grey_stim-white.png,0,113,113,113,119.01615626900457,,,,,,,,,,118.98302095197141,119.05369655799586,119.05369655799586,119.80353283596924,119.79782602901105,119.98143922101008,None,0,,,,,sub-003,ses-control-base-l-2,run-1,grey,2024-04-25_13h52.07.159,VDT,2023.2.3,None,2024-04-25 13h52.25.604167 +0200,
./images_beh/Sphere_CW-1.5_BG-grey_stim-yellow.png,0,114,114,114,120.01593924296321,,,,,,,,,,119.98217977996683,120.05285908095539,120.05285908095539,120.80228695599362,120.79697398497956,121.0516089819721,['space'],0,0.7265250700293109,None,121.04701227595797,121.04701227595797,sub-003,ses-control-base-l-2,run-1,grey,2024-04-25_13h52.07.159,VDT,2023.2.3,None,2024-04-25 13h52.25.604167 +0200,
./images_beh/Sphere_CCW-1.5_BG-grey_stim-white.png,0,115,115,115,121.08712778799236,,,,,,,,,,121.05197438900359,121.08712778799236,121.08712778799236,121.80221589497523,121.83500459598145,121.98039855901152,None,0,,,,,sub-003,ses-control-base-l-2,run-1,grey,2024-04-25_13h52.07.159,VDT,2023.2.3,None,2024-04-25 13h52.25.604167 +0200,
./images_beh/Sphere_CCW-1.5_BG-grey_stim-white.png,0,116,116,116,122.0131479279953,,,,,,,,,,121.98089142900426,122.05183294200106,122.05183294200106,122.8027130200062,122.79664357297588,123.04680416797055,None,0,,,123.04605500097387,123.04605500097387,sub-003,ses-control-base-l-2,run-1,grey,2024-04-25_13h52.07.159,VDT,2023.2.3,None,2024-04-25 13h52.25.604167 +0200,
./images_beh/Sphere_CCW-1.5_BG-grey_stim-white.png,0,117,117,117,123.09098656696733,,,,,,,,,,123.04782736999914,123.09098656696733,123.09098656696733,123.80293842597166,123.83618247299455,123.98264446499525,None,0,,,,,sub-003,ses-control-base-l-2,run-1,grey,2024-04-25_13h52.07.159,VDT,2023.2.3,None,2024-04-25 13h52.25.604167 +0200,
./images_beh/Sphere_Ref_BG-grey_stim-yellow.png,0,118,118,118,124.0299583490123,,,,,,,,,,123.98349693097407,124.05119914800161,124.05119914800161,124.81474535696907,124.79834194795694,125.01855884597171,['space'],0,0.4810701599926688,None,,,sub-003,ses-control-base-l-2,run-1,grey,2024-04-25_13h52.07.159,VDT,2023.2.3,None,2024-04-25 13h52.25.604167 +0200,
./images_beh/Sphere_CCW-1.5_BG-grey_stim-white.png,0,119,119,119,125.05718134896597,,,,,,,,,,125.01911428797757,125.05718134896597,125.05718134896597,125.80186546698678,125.80186546698678,126.01934941596119,None,0,,,,,sub-003,ses-control-base-l-2,run-1,grey,2024-04-25_13h52.07.159,VDT,2023.2.3,None,2024-04-25 13h52.25.604167 +0200,
./images_beh/Sphere_CW-1.5_BG-grey_stim-white.png,0,120,120,120,126.06666624499485,,,,,,,,,,126.02009912999347,126.06666624499485,126.06666624499485,126.80321687896503,126.81114597397391,127.0359807999921,None,0,,,,,sub-003,ses-control-base-l-2,run-1,grey,2024-04-25_13h52.07.159,VDT,2023.2.3,None,2024-04-25 13h52.25.604167 +0200,
./images_beh/Sphere_CW-1.5_BG-grey_stim-white.png,0,121,121,121,127.08304135297658,,,,,,,,,,127.0367082869634,127.08304135297658,127.08304135297658,127.81084373599151,127.82759665895719,128.06201404996682,None,0,,,128.0502815959626,,sub-003,ses-control-base-l-2,run-1,grey,2024-04-25_13h52.07.159,VDT,2023.2.3,None,2024-04-25 13h52.25.604167 +0200,
./images_beh/Sphere_CCW-1.5_BG-grey_stim-white.png,0,122,122,122,128.11082702397835,,,,,,,,,,128.06279196596006,128.11082702397835,128.11082702397835,128.81313718797173,128.8515203729621,129.0474800419761,None,0,,,,,sub-003,ses-control-base-l-2,run-1,grey,2024-04-25_13h52.07.159,VDT,2023.2.3,None,2024-04-25 13h52.25.604167 +0200,
./images_beh/Sphere_Ref_BG-grey_stim-yellow.png,0,123,123,123,129.09647085197503,,,,,,,,,,129.048208253982,129.09647085197503,129.09647085197503,129.81038654997246,129.84525735198986,130.00105242501013,['space'],0,0.45920481404755265,None,,,sub-003,ses-control-base-l-2,run-1,grey,2024-04-25_13h52.07.159,VDT,2023.2.3,None,2024-04-25 13h52.25.604167 +0200,
./images_beh/Sphere_Ref_BG-grey_stim-white.png,0,124,124,124,130.04681220196653,,,,,,,,,,130.00212139397627,130.05939461896196,130.05939461896196,130.81295212201076,130.81295212201076,131.0125433820067,None,0,,,,,sub-003,ses-control-base-l-2,run-1,grey,2024-04-25_13h52.07.159,VDT,2023.2.3,None,2024-04-25 13h52.25.604167 +0200,
./images_beh/Sphere_CW-1.5_BG-grey_stim-white.png,0,125,125,125,131.06103153596632,,,,,,,,,,131.01328269700753,131.06103153596632,131.06103153596632,131.81194021500414,131.81194021500414,132.01022554200608,None,0,,,,,sub-003,ses-control-base-l-2,run-1,grey,2024-04-25_13h52.07.159,VDT,2023.2.3,None,2024-04-25 13h52.25.604167 +0200,
./images_beh/Sphere_CCW-1.5_BG-grey_stim-white.png,0,126,126,126,132.05914662900614,,,,,,,,,,132.01103312300984,132.05914662900614,132.05914662900614,132.79876643099124,132.79876643099124,132.99253553099697,None,0,,,,,sub-003,ses-control-base-l-2,run-1,grey,2024-04-25_13h52.07.159,VDT,2023.2.3,None,2024-04-25 13h52.25.604167 +0200,
./images_beh/Sphere_Ref_BG-grey_stim-white.png,0,127,127,127,133.04026349296328,,,,,,,,,,132.99362927896436,133.0459416169906,133.0459416169906,133.7971939459676,133.7909572419594,134.01669440296246,None,0,,,,,sub-003,ses-control-base-l-2,run-1,grey,2024-04-25_13h52.07.159,VDT,2023.2.3,None,2024-04-25 13h52.25.604167 +0200,
./images_beh/Sphere_CW-1.5_BG-grey_stim-white.png,0,128,128,128,134.06634640699485,,,,,,,,,,134.01742003497202,134.06634640699485,134.06634640699485,134.79925012000604,134.80727968900464,134.9753740679589,None,0,,,,,sub-003,ses-control-base-l-2,run-1,grey,2024-04-25_13h52.07.159,VDT,2023.2.3,None,2024-04-25 13h52.25.604167 +0200,
./images_beh/Sphere_Ref_BG-grey_stim-yellow.png,0,129,129,129,135.02412818896119,,,,,,,,,,134.97650865698233,135.0571264299797,135.0571264299797,135.80971098796,135.80971098796,135.9906356720021,['space'],0,0.40315694303717464,None,,,sub-003,ses-control-base-l-2,run-1,grey,2024-04-25_13h52.07.159,VDT,2023.2.3,None,2024-04-25 13h52.25.604167 +0200,
./images_beh/Sphere_CCW-1.5_BG-grey_stim-white.png,0,130,130,130,136.03254550299607,,,,,,,,,,135.99186254298547,136.05672937899362,136.05672937899362,136.808790045965,136.79550436296267,137.01375847897725,None,0,,,,,sub-003,ses-control-base-l-2,run-1,grey,2024-04-25_13h52.07.159,VDT,2023.2.3,None,2024-04-25 13h52.25.604167 +0200,
./images_beh/Sphere_CW-1.5_BG-grey_stim-white.png,0,131,131,131,137.05832902697148,,,,,,,,,,137.01434653898468,137.05832902697148,137.05832902697148,137.80575577099808,137.80575577099808,138.0133332569967,None,0,,,,,sub-003,ses-control-base-l-2,run-1,grey,2024-04-25_13h52.07.159,VDT,2023.2.3,None,2024-04-25 13h52.25.604167 +0200,
./images_beh/Sphere_CCW-1.5_BG-grey_stim-white.png,0,132,132,132,138.06337167997845,,,,,,,,,,138.01405586197507,138.06337167997845,138.06337167997845,138.8049150169827,138.81093826401047,139.05586153198965,None,0,,,139.04362287698314,,sub-003,ses-control-base-l-2,run-1,grey,2024-04-25_13h52.07.159,VDT,2023.2.3,None,2024-04-25 13h52.25.604167 +0200,
./images_beh/Sphere_CW-1.5_BG-grey_stim-white.png,0,133,133,133,139.0992790479795,,,,,,,,,,139.05648392101284,139.0992790479795,139.0992790479795,139.8045916009578,139.84385904599912,140.0051263939822,None,0,,,,,sub-003,ses-control-base-l-2,run-1,grey,2024-04-25_13h52.07.159,VDT,2023.2.3,None,2024-04-25 13h52.25.604167 +0200,
./images_beh/Sphere_CW-1.5_BG-grey_stim-yellow.png,0,134,134,134,140.04951323696878,,,,,,,,,,140.0062412559637,140.05488430900732,140.05488430900732,140.80378310696688,140.80378310696688,140.97436328197364,['space'],0,0.4060431400430389,None,,,sub-003,ses-control-base-l-2,run-1,grey,2024-04-25_13h52.07.159,VDT,2023.2.3,None,2024-04-25 13h52.25.604167 +0200,
./images_beh/Sphere_CCW-1.5_BG-grey_stim-white.png,0,135,135,135,141.02274557296187,,,,,,,,,,140.97530068998458,141.05380105500808,141.05380105500808,141.80362160300137,141.79243717197096,142.0042578940047,None,0,,,,,sub-003,ses-control-base-l-2,run-1,grey,2024-04-25_13h52.07.159,VDT,2023.2.3,None,2024-04-25 13h52.25.604167 +0200,
./images_beh/Sphere_CW-1.5_BG-grey_stim-white.png,0,136,136,136,142.04842433799058,,,,,,,,,,142.00537879997864,142.0530350219924,142.0530350219924,142.80295622500125,142.79208567598835,143.00429505697684,None,0,,,,,sub-003,ses-control-base-l-2,run-1,grey,2024-04-25_13h52.07.159,VDT,2023.2.3,None,2024-04-25 13h52.25.604167 +0200,
./images_beh/Sphere_CW-1.5_BG-grey_stim-white.png,0,137,137,137,143.05365772498772,,,,,,,,,,143.00606690195855,143.05882185400696,143.05882185400696,143.80249914695742,143.80249914695742,143.98661794496002,None,0,,,,,sub-003,ses-control-base-l-2,run-1,grey,2024-04-25_13h52.07.159,VDT,2023.2.3,None,2024-04-25 13h52.25.604167 +0200,
./images_beh/Sphere_CCW-1.5_BG-grey_stim-yellow.png,0,138,138,138,144.03439619700657,,,,,,,,,,143.9878468689858,144.05791609699372,144.05791609699372,144.80189749901183,144.80189749901183,144.96971449500415,['space'],0,0.41201458702562377,None,,,sub-003,ses-control-base-l-2,run-1,grey,2024-04-25_13h52.07.159,VDT,2023.2.3,None,2024-04-25 13h52.25.604167 +0200,
./images_beh/Sphere_Ref_BG-grey_stim-white.png,0,139,139,139,145.01476614596322,,,,,,,,,,144.97094006900443,145.05830074596452,145.05830074596452,145.80152535799425,145.80152535799425,146.00236122799106,None,0,,,,,sub-003,ses-control-base-l-2,run-1,grey,2024-04-25_13h52.07.159,VDT,2023.2.3,None,2024-04-25 13h52.25.604167 +0200,
./images_beh/Sphere_CCW-1.5_BG-grey_stim-white.png,0,140,140,140,146.05201283300994,,,,,,,,,,146.00333374296315,146.06797721900512,146.06797721900512,146.81782919500256,146.81782919500256,146.95997406699462,None,0,,,,,sub-003,ses-control-base-l-2,run-1,grey,2024-04-25_13h52.07.159,VDT,2023.2.3,None,2024-04-25 13h52.25.604167 +0200,
./images_beh/Sphere_Ref_BG-grey_stim-yellow.png,0,141,141,141,147.00910909997765,,,,,,,,,,146.96070608799346,147.0578493649955,147.0578493649955,147.8197331049596,147.8197331049596,148.0015555889695,['space'],0,0.5062880329787731,None,,,sub-003,ses-control-base-l-2,run-1,grey,2024-04-25_13h52.07.159,VDT,2023.2.3,None,2024-04-25 13h52.25.604167 +0200,
./images_beh/Sphere_CCW-1.5_BG-grey_stim-white.png,0,142,142,142,148.05037283798447,,,,,,,,,,148.0027672679862,148.05603224999504,148.05603224999504,148.80729707196588,148.8001120709814,149.02571791398805,None,0,,,,,sub-003,ses-control-base-l-2,run-1,grey,2024-04-25_13h52.07.159,VDT,2023.2.3,None,2024-04-25 13h52.25.604167 +0200,
./images_beh/Sphere_CW-1.5_BG-grey_stim-white.png,0,143,143,143,149.0777940939879,,,,,,,,,,149.02663545799442,149.0777940939879,149.0777940939879,149.79949049500283,149.8229913339601,150.0337643789826,None,0,,,,,sub-003,ses-control-base-l-2,run-1,grey,2024-04-25_13h52.07.159,VDT,2023.2.3,None,2024-04-25 13h52.25.604167 +0200,
./images_beh/Sphere_CW-1.5_BG-grey_stim-white.png,0,144,144,144,150.08164426498115,,,,,,,,,,150.03481580596417,150.08164426498115,150.08164426498115,150.8072662029881,150.8224513370078,151.00031695701182,None,0,,,,,sub-003,ses-control-base-l-2,run-1,grey,2024-04-25_13h52.07.159,VDT,2023.2.3,None,2024-04-25 13h52.25.604167 +0200,
./images_beh/Sphere_CCW-1.5_BG-grey_stim-white.png,0,145,145,145,151.04782613896532,,,,,,,,,,151.0010967819835,151.05386854795506,151.05386854795506,151.80673056299565,151.80673056299565,151.98333317396464,None,0,,,,,sub-003,ses-control-base-l-2,run-1,grey,2024-04-25_13h52.07.159,VDT,2023.2.3,None,2024-04-25 13h52.25.604167 +0200,
./images_beh/Sphere_Ref_BG-grey_stim-white.png,0,146,146,146,152.02949511696352,,,,,,,,,,151.98407558701,152.0550984449801,152.0550984449801,152.80509630497545,152.79815765295643,153.03304411895806,None,0,,,,,sub-003,ses-control-base-l-2,run-1,grey,2024-04-25_13h52.07.159,VDT,2023.2.3,None,2024-04-25 13h52.25.604167 +0200,
./images_beh/Sphere_Ref_BG-grey_stim-yellow.png,0,147,147,147,153.08296222100034,,,,,,,,,,153.03382870397763,153.08296222100034,153.08296222100034,153.81738960300572,153.83331347099738,154.00579443498282,['space'],0,0.4965988139738329,None,,,sub-003,ses-control-base-l-2,run-1,grey,2024-04-25_13h52.07.159,VDT,2023.2.3,None,2024-04-25 13h52.25.604167 +0200,
./images_beh/Sphere_CW-1.5_BG-grey_stim-white.png,0,148,148,148,154.05307080299826,,,,,,,,,,154.0067441999563,154.06386158498935,154.06386158498935,154.81626944197342,154.81626944197342,155.08154690801166,None,0,,,155.06380367599195,155.06380367599195,sub-003,ses-control-base-l-2,run-1,grey,2024-04-25_13h52.07.159,VDT,2023.2.3,None,2024-04-25 13h52.25.604167 +0200,
./images_beh/Sphere_CCW-1.5_BG-grey_stim-white.png,0,149,149,149,155.13149576296564,,,,,,,,,,155.08280328300316,155.13149576296564,155.13149576296564,155.8049314469681,155.8796488950029,156.03063747601118,None,0,,,,,sub-003,ses-control-base-l-2,run-1,grey,2024-04-25_13h52.07.159,VDT,2023.2.3,None,2024-04-25 13h52.25.604167 +0200,
./images_beh/Sphere_Ref_BG-grey_stim-yellow.png,0,150,150,150,156.07791664398974,,,,,,,,,,156.03175383998314,156.07791664398974,156.07791664398974,156.80471622396726,156.81944445200497,157.01328332396224,['space'],0,0.40675816097063944,None,,,sub-003,ses-control-base-l-2,run-1,grey,2024-04-25_13h52.07.159,VDT,2023.2.3,None,2024-04-25 13h52.25.604167 +0200,
./images_beh/Sphere_CCW-1.5_BG-grey_stim-white.png,0,151,151,151,157.06110659096157,,,,,,,,,,157.01460614299867,157.06110659096157,157.06110659096157,157.80395122198388,157.80395122198388,158.0193703629775,None,0,,,,,sub-003,ses-control-base-l-2,run-1,grey,2024-04-25_13h52.07.159,VDT,2023.2.3,None,2024-04-25 13h52.25.604167 +0200,
./images_beh/Sphere_CW-1.5_BG-grey_stim-white.png,0,152,152,152,158.06271609698888,,,,,,,,,,158.02001565298997,158.06271609698888,158.06271609698888,158.8020356099587,158.8020356099587,158.98637564200908,None,0,,,,,sub-003,ses-control-base-l-2,run-1,grey,2024-04-25_13h52.07.159,VDT,2023.2.3,None,2024-04-25 13h52.25.604167 +0200,
./images_beh/Sphere_CW-1.5_BG-grey_stim-white.png,0,153,153,153,159.0307795049739,,,,,,,,,,158.98696289700456,159.05113219399936,159.05113219399936,159.80215458298335,159.79461043101037,159.99574440799188,None,0,,,,,sub-003,ses-control-base-l-2,run-1,grey,2024-04-25_13h52.07.159,VDT,2023.2.3,None,2024-04-25 13h52.25.604167 +0200,
./images_beh/Sphere_Ref_BG-grey_stim-white.png,0,154,154,154,160.04121903696796,,,,,,,,,,159.9964945350075,160.0613182549714,160.0613182549714,160.81137782300357,160.81137782300357,161.01801699399948,None,0,,,,,sub-003,ses-control-base-l-2,run-1,grey,2024-04-25_13h52.07.159,VDT,2023.2.3,None,2024-04-25 13h52.25.604167 +0200,
./images_beh/Sphere_CW-1.5_BG-grey_stim-white.png,0,155,155,155,161.06328412197763,,,,,,,,,,161.018600469979,161.06328412197763,161.06328412197763,161.8019336059806,161.81018825696083,162.02803465200122,None,0,,,,,sub-003,ses-control-base-l-2,run-1,grey,2024-04-25_13h52.07.159,VDT,2023.2.3,None,2024-04-25 13h52.25.604167 +0200,
./images_beh/Sphere_CW-1.5_BG-grey_stim-yellow.png,0,156,156,156,162.07350150495768,,,,,,,,,,162.02862085198285,162.07350150495768,162.07350150495768,162.80128690396668,162.81587535596918,163.00035025196848,['space'],0,0.4052062390255742,None,,,sub-003,ses-control-base-l-2,run-1,grey,2024-04-25_13h52.07.159,VDT,2023.2.3,None,2024-04-25 13h52.25.604167 +0200,
./images_beh/Sphere_CW-1.5_BG-grey_stim-white.png,0,157,157,157,163.04353736399207,,,,,,,,,,163.00112304498907,163.04902985400986,163.04902985400986,163.79864136397373,163.7922795349732,164.01098416995956,None,0,,,,,sub-003,ses-control-base-l-2,run-1,grey,2024-04-25_13h52.07.159,VDT,2023.2.3,None,2024-04-25 13h52.25.604167 +0200,
./images_beh/Sphere_CCW-1.5_BG-grey_stim-white.png,0,158,158,158,164.05828116298653,,,,,,,,,,164.01179616799345,164.05828116298653,164.05828116298653,164.7989019419765,164.7989019419765,165.04699718399206,None,0,,,165.04637524997815,165.04637524997815,sub-003,ses-control-base-l-2,run-1,grey,2024-04-25_13h52.07.159,VDT,2023.2.3,None,2024-04-25 13h52.25.604167 +0200,
./images_beh/Sphere_CCW-1.5_BG-grey_stim-yellow.png,0,159,159,159,165.08592254295945,,,,,,,,,,165.04738582699792,165.08592254295945,165.08592254295945,165.7988564039697,165.83167177496944,165.9756990589667,['space'],0,0.3915307699935511,None,,,sub-003,ses-control-base-l-2,run-1,grey,2024-04-25_13h52.07.159,VDT,2023.2.3,None,2024-04-25 13h52.25.604167 +0200,
./images_beh/Sphere_CCW-1.5_BG-grey_stim-white.png,0,160,160,160,166.01524806796806,,,,,,,,,,165.97628248296678,166.0465860249824,166.0465860249824,166.79801756696543,166.7908859080053,166.98303355899407,None,0,,,,,sub-003,ses-control-base-l-2,run-1,grey,2024-04-25_13h52.07.159,VDT,2023.2.3,None,2024-04-25 13h52.25.604167 +0200,
./images_beh/Sphere_CCW-1.5_BG-grey_stim-white.png,0,161,161,161,167.0315689019626,,,,,,,,,,166.98388702300144,167.04631261399481,167.04631261399481,167.7980103919981,167.79070355097065,168.0439309339854,None,0,,,,,sub-003,ses-control-base-l-2,run-1,grey,2024-04-25_13h52.07.159,VDT,2023.2.3,None,2024-04-25 13h52.25.604167 +0200,
./images_beh/Sphere_CCW-1.5_BG-grey_stim-white.png,0,162,162,162,168.09190443297848,,,,,,,,,,168.04468428896507,168.09190443297848,168.09190443297848,168.8066330300062,168.83983591396827,169.01295590796508,None,0,,,,,sub-003,ses-control-base-l-2,run-1,grey,2024-04-25_13h52.07.159,VDT,2023.2.3,None,2024-04-25 13h52.25.604167 +0200,
./images_beh/Sphere_CW-1.5_BG-grey_stim-white.png,0,163,163,163,169.0554434049991,,,,,,,,,,169.01356824301183,169.0554434049991,169.0554434049991,169.80641584197292,169.79548176698154,170.00748711597407,None,0,,,,,sub-003,ses-control-base-l-2,run-1,grey,2024-04-25_13h52.07.159,VDT,2023.2.3,None,2024-04-25 13h52.25.604167 +0200,
./images_beh/Sphere_Ref_BG-grey_stim-white.png,0,164,164,164,170.05435134499567,,,,,,,,,,170.00841877196217,170.0601450430113,170.0601450430113,170.8080505519756,170.8080505519756,171.03060221800115,None,0,,,,,sub-003,ses-control-base-l-2,run-1,grey,2024-04-25_13h52.07.159,VDT,2023.2.3,None,2024-04-25 13h52.25.604167 +0200,
./images_beh/Sphere_CCW-1.5_BG-grey_stim-yellow.png,0,165,165,165,171.0798343999777,,,,,,,,,,171.03137176897144,171.0798343999777,171.0798343999777,171.80567850597436,171.8216014369973,172.0296674729907,['space'],0,0.4781081399996765,None,,,sub-003,ses-control-base-l-2,run-1,grey,2024-04-25_13h52.07.159,VDT,2023.2.3,None,2024-04-25 13h52.25.604167 +0200,
./images_beh/Sphere_CCW-1.5_BG-grey_stim-white.png,0,166,166,166,172.07909384096274,,,,,,,,,,172.03060213499703,172.07909384096274,172.07909384096274,172.80462563200854,172.82128775597084,173.02124799997546,None,0,,,,,sub-003,ses-control-base-l-2,run-1,grey,2024-04-25_13h52.07.159,VDT,2023.2.3,None,2024-04-25 13h52.25.604167 +0200,
./images_beh/Sphere_CW-1.5_BG-grey_stim-white.png,0,167,167,167,173.0524608590058,,,,,,,,,,173.02173020801274,173.05723222898087,173.05723222898087,173.80365028599044,173.80365028599044,174.0215334329987,None,0,,,,,sub-003,ses-control-base-l-2,run-1,grey,2024-04-25_13h52.07.159,VDT,2023.2.3,None,2024-04-25 13h52.25.604167 +0200,
./images_beh/Sphere_Ref_BG-grey_stim-yellow.png,0,168,168,168,174.07035394298146,,,,,,,,,,174.0228868519771,174.07035394298146,174.07035394298146,174.80369724699995,174.81046903698007,175.03795143699972,['space'],0,0.42951012699631974,None,,,sub-003,ses-control-base-l-2,run-1,grey,2024-04-25_13h52.07.159,VDT,2023.2.3,None,2024-04-25 13h52.25.604167 +0200,
./images_beh/Sphere_CW-1.5_BG-grey_stim-white.png,0,169,169,169,175.08472521195654,,,,,,,,,,175.0390090929577,175.08472521195654,175.08472521195654,175.80296119500417,175.8261104300036,175.9930877489969,None,0,,,,,sub-003,ses-control-base-l-2,run-1,grey,2024-04-25_13h52.07.159,VDT,2023.2.3,None,2024-04-25 13h52.25.604167 +0200,
./images_beh/Sphere_CCW-1.5_BG-grey_stim-white.png,0,170,170,170,176.0331527349772,,,,,,,,,,175.9936133630108,176.05831566796405,176.05831566796405,176.80235534900567,176.80235534900567,177.02025592600694,None,0,,,,,sub-003,ses-control-base-l-2,run-1,grey,2024-04-25_13h52.07.159,VDT,2023.2.3,None,2024-04-25 13h52.25.604167 +0200,
./images_beh/Sphere_CW-1.5_BG-grey_stim-white.png,0,171,171,171,177.06798446300672,,,,,,,,,,177.02122401096858,177.06798446300672,177.06798446300672,177.8017441019765,177.8080301170121,178.06938285200158,None,0,,,178.041281229991,178.05625254800543,sub-003,ses-control-base-l-2,run-1,grey,2024-04-25_13h52.07.159,VDT,2023.2.3,None,2024-04-25 13h52.25.604167 +0200,
./images_beh/Sphere_CCW-1.5_BG-grey_stim-white.png,0,172,172,172,178.11733411595924,,,,,,,,,,178.0706066149869,178.11733411595924,178.11733411595924,178.80139054800384,178.85854446998565,178.98518796399003,None,0,,,,,sub-003,ses-control-base-l-2,run-1,grey,2024-04-25_13h52.07.159,VDT,2023.2.3,None,2024-04-25 13h52.25.604167 +0200,
./images_beh/Sphere_CW-1.5_BG-grey_stim-yellow.png,0,173,173,173,179.0259983179858,,,,,,,,,,178.98656006000238,179.05658983095782,179.05658983095782,179.8008934360114,179.8008934360114,180.01845738501288,['space'],0,0.36608865403104573,None,,,sub-003,ses-control-base-l-2,run-1,grey,2024-04-25_13h52.07.159,VDT,2023.2.3,None,2024-04-25 13h52.25.604167 +0200,
./images_beh/Sphere_CW-1.5_BG-grey_stim-white.png,0,174,174,174,180.06632442597765,,,,,,,,,,180.01990035100607,180.06632442597765,180.06632442597765,180.81726858497132,180.81726858497132,180.98752519197296,None,0,,,,,sub-003,ses-control-base-l-2,run-1,grey,2024-04-25_13h52.07.159,VDT,2023.2.3,None,2024-04-25 13h52.25.604167 +0200,
./images_beh/Sphere_CCW-1.5_BG-grey_stim-white.png,0,175,175,175,181.03720061999047,,,,,,,,,,180.988248257956,181.05642486497527,181.05642486497527,181.81944799696794,181.802467520989,182.07037806796143,None,0,,,182.0693270440097,182.0693270440097,sub-003,ses-control-base-l-2,run-1,grey,2024-04-25_13h52.07.159,VDT,2023.2.3,None,2024-04-25 13h52.25.604167 +0200,
./images_beh/Sphere_CCW-1.5_BG-grey_stim-white.png,0,176,176,176,182.1230868069688,,,,,,,,,,182.0711014730041,182.1230868069688,182.1230868069688,182.79907704499783,182.86838610999985,183.05352887196932,None,0,,,183.05271437996998,,sub-003,ses-control-base-l-2,run-1,grey,2024-04-25_13h52.07.159,VDT,2023.2.3,None,2024-04-25 13h52.25.604167 +0200,
./images_beh/Sphere_Ref_BG-grey_stim-yellow.png,0,177,177,177,183.10205203597434,,,,,,,,,,183.05424542800756,183.10205203597434,183.10205203597434,183.80591650900897,183.84878334699897,183.99041371099884,['space'],0,0.4218428219901398,None,,,sub-003,ses-control-base-l-2,run-1,grey,2024-04-25_13h52.07.159,VDT,2023.2.3,None,2024-04-25 13h52.25.604167 +0200,
./images_beh/Sphere_Ref_BG-grey_stim-white.png,0,178,178,178,184.03671334899263,,,,,,,,,,183.99137774697738,184.05416624300415,184.05416624300415,184.8152370369644,184.80131162400357,185.03533916495508,None,0,,,,,sub-003,ses-control-base-l-2,run-1,grey,2024-04-25_13h52.07.159,VDT,2023.2.3,None,2024-04-25 13h52.25.604167 +0200,
./images_beh/Sphere_CW-1.5_BG-grey_stim-white.png,0,179,179,179,185.08432908600662,,,,,,,,,,185.03607545397244,185.08432908600662,185.08432908600662,185.80635637498926,185.831005688,185.96561284497147,None,0,,,,,sub-003,ses-control-base-l-2,run-1,grey,2024-04-25_13h52.07.159,VDT,2023.2.3,None,2024-04-25 13h52.25.604167 +0200,
./images_beh/Sphere_CW-1.5_BG-grey_stim-white.png,0,180,180,180,186.01028692600084,,,,,,,,,,185.96667377999984,186.06445170595543,186.06445170595543,186.80498584196903,186.80498584196903,187.02224995900178,None,0,,,,,sub-003,ses-control-base-l-2,run-1,grey,2024-04-25_13h52.07.159,VDT,2023.2.3,None,2024-04-25 13h52.25.604167 +0200,
./images_beh/Sphere_CW-1.5_BG-grey_stim-white.png,0,181,181,181,187.06969674199354,,,,,,,,,,187.0229616999859,187.06969674199354,187.06969674199354,187.80511593801202,187.81348799500847,187.98822847695556,None,0,,,,,sub-003,ses-control-base-l-2,run-1,grey,2024-04-25_13h52.07.159,VDT,2023.2.3,None,2024-04-25 13h52.25.604167 +0200,
./images_beh/Sphere_CW-1.5_BG-grey_stim-yellow.png,0,182,182,182,188.0368503269856,,,,,,,,,,187.98894636001205,188.05246186599834,188.05246186599834,188.80437331297435,188.79691737896064,188.98815949296113,['space'],0,0.3602229690295644,None,,,sub-003,ses-control-base-l-2,run-1,grey,2024-04-25_13h52.07.159,VDT,2023.2.3,None,2024-04-25 13h52.25.604167 +0200,
./images_beh/Sphere_CCW-1.5_BG-grey_stim-white.png,0,183,183,183,189.0365722439601,,,,,,,,,,188.9893594639725,189.05199942097533,189.05199942097533,189.80347145500127,189.79621065896936,190.02074074198026,None,0,,,,,sub-003,ses-control-base-l-2,run-1,grey,2024-04-25_13h52.07.159,VDT,2023.2.3,None,2024-04-25 13h52.25.604167 +0200,
./images_beh/Sphere_CCW-1.5_BG-grey_stim-white.png,0,184,184,184,190.06878860900179,,,,,,,,,,190.0214607460075,190.06878860900179,190.06878860900179,190.80436442396604,190.81194596196292,191.03649763995782,None,0,,,,,sub-003,ses-control-base-l-2,run-1,grey,2024-04-25_13h52.07.159,VDT,2023.2.3,None,2024-04-25 13h52.25.604167 +0200,
./images_beh/Sphere_CCW-1.5_BG-grey_stim-yellow.png,0,185,185,185,191.08502427797066,,,,,,,,,,191.03723158000503,191.08502427797066,191.08502427797066,191.8025846479577,191.8285512329894,191.98570367798675,['space'],0,0.3786367840366438,None,,,sub-003,ses-control-base-l-2,run-1,grey,2024-04-25_13h52.07.159,VDT,2023.2.3,None,2024-04-25 13h52.25.604167 +0200,
./images_beh/Sphere_CW-1.5_BG-grey_stim-white.png,0,186,186,186,192.02883875498082,,,,,,,,,,191.9864681569743,192.04995314299595,192.04995314299595,192.80148565996205,192.7947502050083,192.96411581296707,None,0,,,,,sub-003,ses-control-base-l-2,run-1,grey,2024-04-25_13h52.07.159,VDT,2023.2.3,None,2024-04-25 13h52.25.604167 +0200,
./images_beh/Sphere_CCW-1.5_BG-grey_stim-white.png,0,187,187,187,193.01153256295947,,,,,,,,,,192.9648397899582,193.05140243598726,193.05140243598726,193.8120603329735,193.7964220729773,194.04498816496925,None,0,,,,194.04394140298245,sub-003,ses-control-base-l-2,run-1,grey,2024-04-25_13h52.07.159,VDT,2023.2.3,None,2024-04-25 13h52.25.604167 +0200,
./images_beh/Sphere_Ref_BG-grey_stim-yellow.png,0,188,188,188,194.09185572597198,,,,,,,,,,194.04592207999667,194.09185572597198,194.09185572597198,194.801763431984,194.8335214459803,194.98340220795944,['space'],0,0.3930490089696832,None,,,sub-003,ses-control-base-l-2,run-1,grey,2024-04-25_13h52.07.159,VDT,2023.2.3,None,2024-04-25 13h52.25.604167 +0200,
./images_beh/Sphere_CW-1.5_BG-grey_stim-white.png,0,189,189,189,195.03064135101158,,,,,,,,,,194.98436363297515,195.04854667396285,195.04854667396285,195.80965837399708,195.80965837399708,196.03436219401192,None,0,,,,,sub-003,ses-control-base-l-2,run-1,grey,2024-04-25_13h52.07.159,VDT,2023.2.3,None,2024-04-25 13h52.25.604167 +0200,
./images_beh/Sphere_Ref_BG-grey_stim-white.png,0,190,190,190,196.08052817598218,,,,,,,,,,196.0349449759815,196.08052817598218,196.08052817598218,196.80032231198857,196.82579867099412,197.0122592980042,None,0,,,,,sub-003,ses-control-base-l-2,run-1,grey,2024-04-25_13h52.07.159,VDT,2023.2.3,None,2024-04-25 13h52.25.604167 +0200,
./images_beh/Sphere_Ref_BG-grey_stim-white.png,0,191,191,191,197.06030123098753,,,,,,,,,,197.01300187100423,197.06030123098753,197.06030123098753,197.80018745199777,197.80871445999946,198.0334263909608,None,0,,,,,sub-003,ses-control-base-l-2,run-1,grey,2024-04-25_13h52.07.159,VDT,2023.2.3,None,2024-04-25 13h52.25.604167 +0200,
./images_beh/Sphere_CCW-1.5_BG-grey_stim-white.png,0,192,192,192,198.08232061599847,,,,,,,,,,198.03413769695908,198.08232061599847,198.08232061599847,198.79948949901154,198.82490951899672,199.0258502169745,None,0,,,,,sub-003,ses-control-base-l-2,run-1,grey,2024-04-25_13h52.07.159,VDT,2023.2.3,None,2024-04-25 13h52.25.604167 +0200,
./images_beh/Sphere_CCW-1.5_BG-grey_stim-white.png,0,193,193,193,199.0757947009988,,,,,,,,,,199.0269810879836,199.0757947009988,199.0757947009988,199.79807266796706,199.82426345796557,199.98212925798725,None,0,,,,,sub-003,ses-control-base-l-2,run-1,grey,2024-04-25_13h52.07.159,VDT,2023.2.3,None,2024-04-25 13h52.25.604167 +0200,
./images_beh/Sphere_Ref_BG-grey_stim-yellow.png,0,194,194,194,200.02958019595826,,,,,,,,,,199.9828522009775,200.04635477100965,200.04635477100965,200.79792380996514,200.79078933096025,201.0416373600019,['space'],0,0.3898136549978517,None,201.04039254196687,201.04039254196687,sub-003,ses-control-base-l-2,run-1,grey,2024-04-25_13h52.07.159,VDT,2023.2.3,None,2024-04-25 13h52.25.604167 +0200,
./images_beh/Sphere_CW-1.5_BG-grey_stim-white.png,0,195,195,195,201.08922313700896,,,,,,,,,,201.0426441099844,201.08922313700896,201.08922313700896,201.8064348580083,201.8303898529848,202.09094891196582,None,0,,,202.04566817497835,202.08981122198747,sub-003,ses-control-base-l-2,run-1,grey,2024-04-25_13h52.07.159,VDT,2023.2.3,None,2024-04-25 13h52.25.604167 +0200,
./images_beh/Sphere_CW-1.5_BG-grey_stim-white.png,0,196,196,196,202.1410021709744,,,,,,,,,,202.09176909399685,202.1410021709744,202.1410021709744,202.80578199098818,202.88928926497465,203.0065307749901,None,0,,,,,sub-003,ses-control-base-l-2,run-1,grey,2024-04-25_13h52.07.159,VDT,2023.2.3,None,2024-04-25 13h52.25.604167 +0200,
./images_beh/Sphere_CCW-1.5_BG-grey_stim-white.png,0,197,197,197,203.04997105296934,,,,,,,,,,203.00727573700715,203.05486902000848,203.05486902000848,203.80551974795526,203.79511999100214,203.98903024499305,None,0,,,,,sub-003,ses-control-base-l-2,run-1,grey,2024-04-25_13h52.07.159,VDT,2023.2.3,None,2024-04-25 13h52.25.604167 +0200,
./images_beh/Sphere_CCW-1.5_BG-grey_stim-white.png,0,198,198,198,204.02848133596126,,,,,,,,,,203.98970120796002,204.05507335899165,204.05507335899165,204.80509069899563,204.79444664000766,204.99604610697133,None,0,,,,,sub-003,ses-control-base-l-2,run-1,grey,2024-04-25_13h52.07.159,VDT,2023.2.3,None,2024-04-25 13h52.25.604167 +0200,
./images_beh/Sphere_CCW-1.5_BG-grey_stim-white.png,0,199,199,199,205.04558371199528,,,,,,,,,,204.99675849400228,205.0539566919906,205.0539566919906,205.80423927900847,205.7934385559638,205.98874225397594,None,0,,,,,sub-003,ses-control-base-l-2,run-1,grey,2024-04-25_13h52.07.159,VDT,2023.2.3,None,2024-04-25 13h52.25.604167 +0200,
./images_beh/Sphere_CW-1.5_BG-grey_stim-yellow.png,0,200,200,200,206.03322046698304,,,,,,,,,,205.9894010630087,206.05404277599882,206.05404277599882,206.8036485419725,206.7920078060124,207.00440055300714,['space'],0,0.3899404819821939,None,,,sub-003,ses-control-base-l-2,run-1,grey,2024-04-25_13h52.07.159,VDT,2023.2.3,None,2024-04-25 13h52.25.604167 +0200,
./images_beh/Sphere_Ref_BG-grey_stim-white.png,0,201,201,201,207.0507605089806,,,,,,,,,,207.00579010497313,207.07003495597746,207.07003495597746,207.80313968501287,207.80984179198276,208.02743297896814,None,0,,,,,sub-003,ses-control-base-l-2,run-1,grey,2024-04-25_13h52.07.159,VDT,2023.2.3,None,2024-04-25 13h52.25.604167 +0200,
./images_beh/Sphere_CCW-1.5_BG-grey_stim-white.png,0,202,202,202,208.07885899598477,,,,,,,,,,208.0281400459935,208.07885899598477,208.07885899598477,208.802859185962,208.8254974570009,209.0089764969889,None,0,,,,,sub-003,ses-control-base-l-2,run-1,grey,2024-04-25_13h52.07.159,VDT,2023.2.3,None,2024-04-25 13h52.25.604167 +0200,
./images_beh/Sphere_CCW-1.5_BG-grey_stim-yellow.png,0,203,203,203,209.0513147939928,,,,,,,,,,209.00946980400477,209.0513147939928,209.0513147939928,209.80204262398183,209.79112514096778,209.9927903089556,['space'],0,0.44842238700948656,None,,,sub-003,ses-control-base-l-2,run-1,grey,2024-04-25_13h52.07.159,VDT,2023.2.3,None,2024-04-25 13h52.25.604167 +0200,
./images_beh/Sphere_CW-1.5_BG-grey_stim-white.png,0,204,204,204,210.0381296169944,,,,,,,,,,209.99354650400346,210.0575636079884,210.0575636079884,210.8016238269629,210.8016238269629,211.0261696599773,None,0,,,,,sub-003,ses-control-base-l-2,run-1,grey,2024-04-25_13h52.07.159,VDT,2023.2.3,None,2024-04-25 13h52.25.604167 +0200,
./images_beh/Sphere_CW-1.5_BG-grey_stim-white.png,0,205,205,205,211.07146443997044,,,,,,,,,,211.02684926398797,211.07146443997044,211.07146443997044,211.80092667398276,211.81765059899772,212.09056456096005,None,0,,,212.03989016497508,212.0678177609807,sub-003,ses-control-base-l-2,run-1,grey,2024-04-25_13h52.07.159,VDT,2023.2.3,None,2024-04-25 13h52.25.604167 +0200,
./images_beh/Sphere_Ref_BG-grey_stim-white.png,0,206,206,206,212.1369429109618,,,,,,,,,,212.09128803998465,212.1369429109618,212.1369429109618,212.80058725597337,212.88374296500115,213.01824482000666,None,0,,,,,sub-003,ses-control-base-l-2,run-1,grey,2024-04-25_13h52.07.159,VDT,2023.2.3,None,2024-04-25 13h52.25.604167 +0200,
./images_beh/Sphere_Ref_BG-grey_stim-yellow.png,0,207,207,207,213.0646026559989,,,,,,,,,,213.01910344697535,213.0646026559989,213.0646026559989,213.8062981129624,213.8062981129624,214.03451844496885,['space'],0,0.3947480160277337,None,,,sub-003,ses-control-base-l-2,run-1,grey,2024-04-25_13h52.07.159,VDT,2023.2.3,None,2024-04-25 13h52.25.604167 +0200,
./images_beh/Sphere_CW-1.5_BG-grey_stim-white.png,0,208,208,208,214.08171549998224,,,,,,,,,,214.0356150069856,214.08171549998224,214.08171549998224,214.80792051396566,214.82316346396692,215.0177518549608,None,0,,,,,sub-003,ses-control-base-l-2,run-1,grey,2024-04-25_13h52.07.159,VDT,2023.2.3,None,2024-04-25 13h52.25.604167 +0200,
./images_beh/Sphere_CCW-1.5_BG-grey_stim-white.png,0,209,209,209,215.06361521501094,,,,,,,,,,215.01849084399873,215.06361521501094,215.06361521501094,215.807072762982,215.807072762982,215.98439358896576,None,0,,,,,sub-003,ses-control-base-l-2,run-1,grey,2024-04-25_13h52.07.159,VDT,2023.2.3,None,2024-04-25 13h52.25.604167 +0200,
./images_beh/Sphere_CW-1.5_BG-grey_stim-white.png,0,210,210,210,216.03136500599794,,,,,,,,,,215.985121737991,216.0548041560105,216.0548041560105,216.80585604999214,216.79898575000698,216.98357357201166,None,0,,,,,sub-003,ses-control-base-l-2,run-1,grey,2024-04-25_13h52.07.159,VDT,2023.2.3,None,2024-04-25 13h52.25.604167 +0200,
./images_beh/Sphere_CCW-1.5_BG-grey_stim-white.png,0,211,211,211,217.0293112900108,,,,,,,,,,216.98435184598202,217.05554333300097,217.05554333300097,217.80579621699871,217.7982835979783,218.03276818199083,None,0,,,,,sub-003,ses-control-base-l-2,run-1,grey,2024-04-25_13h52.07.159,VDT,2023.2.3,None,2024-04-25 13h52.25.604167 +0200,
./images_beh/Sphere_CCW-1.5_BG-grey_stim-white.png,0,212,212,212,218.0787949099904,,,,,,,,,,218.0334355799714,218.0787949099904,218.0787949099904,218.80468464799924,218.82109895296162,218.97159278497566,None,0,,,,,sub-003,ses-control-base-l-2,run-1,grey,2024-04-25_13h52.07.159,VDT,2023.2.3,None,2024-04-25 13h52.25.604167 +0200,
./images_beh/Sphere_Ref_BG-grey_stim-yellow.png,0,213,213,213,219.01797993900254,,,,,,,,,,218.97231322998414,219.0537665009615,219.0537665009615,219.80435667396523,219.79735823598458,219.97062719997484,['space'],0,0.3595349630340934,None,,,sub-003,ses-control-base-l-2,run-1,grey,2024-04-25_13h52.07.159,VDT,2023.2.3,None,2024-04-25 13h52.25.604167 +0200,
./images_beh/Sphere_CW-1.5_BG-grey_stim-white.png,0,214,214,214,220.01451543497387,,,,,,,,,,219.97145839297445,220.05355049599893,220.05355049599893,220.8160205919994,220.7995318750036,221.02046818699455,None,0,,,,,sub-003,ses-control-base-l-2,run-1,grey,2024-04-25_13h52.07.159,VDT,2023.2.3,None,2024-04-25 13h52.25.604167 +0200,
./images_beh/Sphere_CW-1.5_BG-grey_stim-white.png,0,215,215,215,221.06827339198207,,,,,,,,,,221.0211895069806,221.06827339198207,221.06827339198207,221.80426472699037,221.81299635698088,222.01354940701276,None,0,,,,,sub-003,ses-control-base-l-2,run-1,grey,2024-04-25_13h52.07.159,VDT,2023.2.3,None,2024-04-25 13h52.25.604167 +0200,
./images_beh/Sphere_CCW-1.5_BG-grey_stim-white.png,0,216,216,216,222.06100638897624,,,,,,,,,,222.01427023101132,222.06100638897624,222.06100638897624,222.80264896398876,222.80264896398876,223.0044134859927,None,0,,,,,sub-003,ses-control-base-l-2,run-1,grey,2024-04-25_13h52.07.159,VDT,2023.2.3,None,2024-04-25 13h52.25.604167 +0200,
./images_beh/Sphere_CCW-1.5_BG-grey_stim-white.png,0,217,217,217,223.05485310795484,,,,,,,,,,223.00534801196773,223.06196004798403,223.06196004798403,223.81469111796468,223.81469111796468,224.01304881396936,None,0,,,,,sub-003,ses-control-base-l-2,run-1,grey,2024-04-25_13h52.07.159,VDT,2023.2.3,None,2024-04-25 13h52.25.604167 +0200,
./images_beh/Sphere_Ref_BG-grey_stim-yellow.png,0,218,218,218,224.05844725097995,,,,,,,,,,224.01369928696658,224.05844725097995,224.05844725097995,224.8017935079988,224.8017935079988,224.98099087795708,['space'],0,0.41762970096897334,None,,,sub-003,ses-control-base-l-2,run-1,grey,2024-04-25_13h52.07.159,VDT,2023.2.3,None,2024-04-25 13h52.25.604167 +0200,
./images_beh/Sphere_CCW-1.5_BG-grey_stim-white.png,0,219,219,219,225.02879511599895,,,,,,,,,,224.98209971899632,225.0499826860032,225.0499826860032,225.80099131399766,225.79417032696074,226.0619861209998,None,0,,,226.0443009909941,226.0443009909941,sub-003,ses-control-base-l-2,run-1,grey,2024-04-25_13h52.07.159,VDT,2023.2.3,None,2024-04-25 13h52.25.604167 +0200,
./images_beh/Sphere_CW-1.5_BG-grey_stim-white.png,0,220,220,220,226.1120818349882,,,,,,,,,,226.06310068600578,226.1120818349882,226.1120818349882,226.80273251299514,226.86037218995625,227.03442109195748,None,0,,,,,sub-003,ses-control-base-l-2,run-1,grey,2024-04-25_13h52.07.159,VDT,2023.2.3,None,2024-04-25 13h52.25.604167 +0200,
./images_beh/Sphere_CCW-1.5_BG-grey_stim-white.png,0,221,221,221,227.08009366400074,,,,,,,,,,227.03499870101223,227.08009366400074,227.08009366400074,227.80143729801057,227.8266110389959,228.01077659399016,None,0,,,,,sub-003,ses-control-base-l-2,run-1,grey,2024-04-25_13h52.07.159,VDT,2023.2.3,None,2024-04-25 13h52.25.604167 +0200,
./images_beh/Sphere_CW-1.5_BG-grey_stim-white.png,0,222,222,222,228.0590031259926,,,,,,,,,,228.01163613097742,228.0590031259926,228.0590031259926,228.7996971239918,228.7996971239918,229.01591042097425,None,0,,,,,sub-003,ses-control-base-l-2,run-1,grey,2024-04-25_13h52.07.159,VDT,2023.2.3,None,2024-04-25 13h52.25.604167 +0200,
./images_beh/Sphere_Ref_BG-grey_stim-white.png,0,223,223,223,229.0618436759687,,,,,,,,,,229.01656278199516,229.0618436759687,229.0618436759687,229.79935291898437,229.80870509101078,229.97896805795608,None,0,,,,,sub-003,ses-control-base-l-2,run-1,grey,2024-04-25_13h52.07.159,VDT,2023.2.3,None,2024-04-25 13h52.25.604167 +0200,
./images_beh/Sphere_CW-1.5_BG-grey_stim-white.png,0,224,224,224,230.0284529599594,,,,,,,,,,229.9796969019808,230.04869936598698,230.04869936598698,230.79865276796045,230.79179748496972,230.98276272800285,None,0,,,,,sub-003,ses-control-base-l-2,run-1,grey,2024-04-25_13h52.07.159,VDT,2023.2.3,None,2024-04-25 13h52.25.604167 +0200,
./images_beh/Sphere_CW-1.5_BG-grey_stim-yellow.png,0,225,225,225,231.03098288498586,,,,,,,,,,230.9834808720043,231.04708650597604,231.04708650597604,231.79855769098504,231.79855769098504,232.0254122929764,['space'],0,0.5170081089599989,None,,,sub-003,ses-control-base-l-2,run-1,grey,2024-04-25_13h52.07.159,VDT,2023.2.3,None,2024-04-25 13h52.25.604167 +0200,
./images_beh/Sphere_CW-1.5_BG-grey_stim-white.png,0,226,226,226,232.07367493398488,,,,,,,,,,232.02652829198632,232.07367493398488,232.07367493398488,232.8103246089886,232.8272175460006,232.9917253080057,None,0,,,,,sub-003,ses-control-base-l-2,run-1,grey,2024-04-25_13h52.07.159,VDT,2023.2.3,None,2024-04-25 13h52.25.604167 +0200,
./images_beh/Sphere_CCW-1.5_BG-grey_stim-white.png,0,227,227,227,233.03992468200158,,,,,,,,,,232.9924655299983,233.0574936979683,233.0574936979683,233.8095711210044,233.79586425900925,233.99140820198227,None,0,,,,,sub-003,ses-control-base-l-2,run-1,grey,2024-04-25_13h52.07.159,VDT,2023.2.3,None,2024-04-25 13h52.25.604167 +0200,
./images_beh/Sphere_Ref_BG-grey_stim-yellow.png,0,228,228,228,234.0392776549561,,,,,,,,,,233.99386577296536,234.05696859699674,234.05696859699674,234.8060482579749,234.7951053470024,234.97432248096447,['space'],0,0.5315335119958036,None,,,sub-003,ses-control-base-l-2,run-1,grey,2024-04-25_13h52.07.159,VDT,2023.2.3,None,2024-04-25 13h52.25.604167 +0200,
./images_beh/Sphere_CCW-1.5_BG-grey_stim-white.png,0,229,229,229,235.02193954295944,,,,,,,,,,234.9756264979951,235.05611183098517,235.05611183098517,235.8089779369766,235.8089779369766,236.01342112699058,None,0,,,,,sub-003,ses-control-base-l-2,run-1,grey,2024-04-25_13h52.07.159,VDT,2023.2.3,None,2024-04-25 13h52.25.604167 +0200,
./images_beh/Sphere_Ref_BG-grey_stim-white.png,0,230,230,230,236.0620773700066,,,,,,,,,,236.01440495200222,236.0620773700066,236.0620773700066,236.80547479796223,236.80547479796223,236.98938315699343,None,0,,,,,sub-003,ses-control-base-l-2,run-1,grey,2024-04-25_13h52.07.159,VDT,2023.2.3,None,2024-04-25 13h52.25.604167 +0200,
./images_beh/Sphere_CCW-1.5_BG-grey_stim-yellow.png,0,231,231,231,237.0335689620115,,,,,,,,,,236.9903764599585,237.05500502197538,237.05500502197538,237.8047496919753,237.79389561200514,237.9888079490047,['space'],0,0.3809186210273765,None,,,sub-003,ses-control-base-l-2,run-1,grey,2024-04-25_13h52.07.159,VDT,2023.2.3,None,2024-04-25 13h52.25.604167 +0200,
./images_beh/Sphere_CW-1.5_BG-grey_stim-white.png,0,232,232,232,238.0305754559813,,,,,,,,,,237.989611684985,238.05459587398218,238.05459587398218,238.80435526900692,238.79256421601167,239.02199153701076,None,0,,,,,sub-003,ses-control-base-l-2,run-1,grey,2024-04-25_13h52.07.159,VDT,2023.2.3,None,2024-04-25 13h52.25.604167 +0200,
./images_beh/Sphere_CW-1.5_BG-grey_stim-white.png,0,233,233,233,239.06922771199606,,,,,,,,,,239.0227555540041,239.06922771199606,239.06922771199606,239.80356476898305,239.8101110259886,240.03853777301265,None,0,,,,,sub-003,ses-control-base-l-2,run-1,grey,2024-04-25_13h52.07.159,VDT,2023.2.3,None,2024-04-25 13h52.25.604167 +0200,
./images_beh/Sphere_Ref_BG-grey_stim-white.png,0,234,234,234,240.08918618498137,,,,,,,,,,240.0395995209692,240.08918618498137,240.08918618498137,240.80315819499083,240.8366654489655,240.99410767800873,None,0,,,,,sub-003,ses-control-base-l-2,run-1,grey,2024-04-25_13h52.07.159,VDT,2023.2.3,None,2024-04-25 13h52.25.604167 +0200,
./images_beh/Sphere_CW-1.5_BG-grey_stim-white.png,0,235,235,235,241.04256818897557,,,,,,,,,,240.99483407998923,241.05320099496748,241.05320099496748,241.8026885240106,241.79186026297975,242.03676535200793,None,0,,,,,sub-003,ses-control-base-l-2,run-1,grey,2024-04-25_13h52.07.159,VDT,2023.2.3,None,2024-04-25 13h52.25.604167 +0200,
./images_beh/Sphere_CCW-1.5_BG-grey_stim-white.png,0,236,236,236,242.08386029396206,,,,,,,,,,242.03768759896047,242.08386029396206,242.08386029396206,242.80220967100468,242.82537658599904,243.04193770501297,None,0,,,243.04112773598172,,sub-003,ses-control-base-l-2,run-1,grey,2024-04-25_13h52.07.159,VDT,2023.2.3,None,2024-04-25 13h52.25.604167 +0200,
./images_beh/Sphere_Ref_BG-grey_stim-yellow.png,0,237,237,237,243.09082743996987,,,,,,,,,,243.0426393150119,243.09082743996987,243.09082743996987,243.80117257399252,243.83440969797084,244.01864891900914,['space'],0,0.5950459580053575,None,,,sub-003,ses-control-base-l-2,run-1,grey,2024-04-25_13h52.07.159,VDT,2023.2.3,None,2024-04-25 13h52.25.604167 +0200,
./images_beh/Sphere_CW-1.5_BG-grey_stim-white.png,0,238,238,238,244.0636370150023,,,,,,,,,,244.01985819096444,244.0636370150023,244.0636370150023,244.80631840298884,244.80631840298884,245.00805198197486,None,0,,,,,sub-003,ses-control-base-l-2,run-1,grey,2024-04-25_13h52.07.159,VDT,2023.2.3,None,2024-04-25 13h52.25.604167 +0200,
./images_beh/Sphere_CCW-1.5_BG-grey_stim-white.png,0,239,239,239,245.0552551409928,,,,,,,,,,245.00882320298115,245.0552551409928,245.0552551409928,245.80067470797803,245.80067470797803,246.02498983900296,None,0,,,,,sub-003,ses-control-base-l-2,run-1,grey,2024-04-25_13h52.07.159,VDT,2023.2.3,None,2024-04-25 13h52.25.604167 +0200,
./images_beh/Sphere_CW-1.5_BG-grey_stim-yellow.png,0,240,240,240,246.07231465599034,,,,,,,,,,246.02576877898537,246.07231465599034,246.07231465599034,246.8073077519657,246.8166087709833,247.05706990498584,['space'],0,0.5002618359867483,None,247.04994796897518,,sub-003,ses-control-base-l-2,run-1,grey,2024-04-25_13h52.07.159,VDT,2023.2.3,None,2024-04-25 13h52.25.604167 +0200,
./images_beh/Sphere_CW-1.5_BG-grey_stim-white.png,0,241,241,241,247.10539732896723,,,,,,,,,,247.05813091498567,247.10539732896723,247.10539732896723,247.80877060699277,247.8517801819835,248.00085796200437,None,0,,,,,sub-003,ses-control-base-l-2,run-1,grey,2024-04-25_13h52.07.159,VDT,2023.2.3,None,2024-04-25 13h52.25.604167 +0200,
./images_beh/Sphere_CCW-1.5_BG-grey_stim-white.png,0,242,242,242,248.04770973400446,,,,,,,,,,248.00158658297732,248.05366070795571,248.05366070795571,248.8187320799916,248.8014869549661,249.01629316800972,None,0,,,,,sub-003,ses-control-base-l-2,run-1,grey,2024-04-25_13h52.07.159,VDT,2023.2.3,None,2024-04-25 13h52.25.604167 +0200,
./images_beh/Sphere_CW-1.5_BG-grey_stim-white.png,0,243,243,243,249.06082250596955,,,,,,,,,,249.01719829096692,249.06082250596955,249.06082250596955,249.81837640400045,249.81837640400045,249.96960739599308,None,0,,,,,sub-003,ses-control-base-l-2,run-1,grey,2024-04-25_13h52.07.159,VDT,2023.2.3,None,2024-04-25 13h52.25.604167 +0200,
./images_beh/Sphere_Ref_BG-grey_stim-yellow.png,0,244,244,244,250.01723529800074,,,,,,,,,,249.97033747599926,250.06554802396568,250.06554802396568,250.8148213189561,250.8148213189561,251.0325738649699,['space'],0,0.4595942809828557,None,,,sub-003,ses-control-base-l-2,run-1,grey,2024-04-25_13h52.07.159,VDT,2023.2.3,None,2024-04-25 13h52.25.604167 +0200,
./images_beh/Sphere_CW-1.5_BG-grey_stim-white.png,0,245,245,245,251.07994847296504,,,,,,,,,,251.0337194770109,251.07994847296504,251.07994847296504,251.8056061329553,251.8202794030076,252.02223046997096,None,0,,,,,sub-003,ses-control-base-l-2,run-1,grey,2024-04-25_13h52.07.159,VDT,2023.2.3,None,2024-04-25 13h52.25.604167 +0200,
./images_beh/Sphere_CCW-1.5_BG-grey_stim-white.png,0,246,246,246,252.06928737199632,,,,,,,,,,252.02301349595655,252.06928737199632,252.06928737199632,252.81686017295578,252.83375823899405,252.99834952596575,None,0,,,,,sub-003,ses-control-base-l-2,run-1,grey,2024-04-25_13h52.07.159,VDT,2023.2.3,None,2024-04-25 13h52.25.604167 +0200,
./images_beh/Sphere_CCW-1.5_BG-grey_stim-yellow.png,0,247,247,247,253.04373590199975,,,,,,,,,,252.9990833819611,253.06389300100273,253.06389300100273,253.8040315649705,253.8040315649705,254.0307204599958,['space'],0,0.4129312569857575,None,,,sub-003,ses-control-base-l-2,run-1,grey,2024-04-25_13h52.07.159,VDT,2023.2.3,None,2024-04-25 13h52.25.604167 +0200,
./images_beh/Sphere_CCW-1.5_BG-grey_stim-white.png,0,248,248,248,254.0748605990084,,,,,,,,,,254.0318099479773,254.0748605990084,254.0748605990084,254.80399126297561,254.81947187095648,255.019965599,None,0,,,,,sub-003,ses-control-base-l-2,run-1,grey,2024-04-25_13h52.07.159,VDT,2023.2.3,None,2024-04-25 13h52.25.604167 +0200,
./images_beh/Sphere_Ref_BG-grey_stim-white.png,0,249,249,249,255.06799382396275,,,,,,,,,,255.02070809196448,255.06799382396275,255.06799382396275,255.81462282600114,255.8315242739627,255.98702569300076,None,0,,,,,sub-003,ses-control-base-l-2,run-1,grey,2024-04-25_13h52.07.159,VDT,2023.2.3,None,2024-04-25 13h52.25.604167 +0200,
./images_beh/Sphere_CW-1.5_BG-grey_stim-white.png,0,250,250,250,256.0296824449906,,,,,,,,,,255.98760250001214,256.0512431819807,256.0512431819807,256.8025289789657,256.79515600798186,256.99533250095556,None,0,,,,,sub-003,ses-control-base-l-2,run-1,grey,2024-04-25_13h52.07.159,VDT,2023.2.3,None,2024-04-25 13h52.25.604167 +0200,
./images_beh/Sphere_CCW-1.5_BG-grey_stim-white.png,0,251,251,251,257.0390475599561,,,,,,,,,,256.99590798601275,257.05067967099603,257.05067967099603,257.8026548050111,257.7949386469554,258.0362236289657,None,0,,,,,sub-003,ses-control-base-l-2,run-1,grey,2024-04-25_13h52.07.159,VDT,2023.2.3,None,2024-04-25 13h52.25.604167 +0200,
./images_beh/Sphere_CW-1.5_BG-grey_stim-white.png,0,252,252,252,258.08514835097594,,,,,,,,,,258.0369341849582,258.08514835097594,258.08514835097594,258.80154989496805,258.8271861759713,258.9809256939916,None,0,,,,,sub-003,ses-control-base-l-2,run-1,grey,2024-04-25_13h52.07.159,VDT,2023.2.3,None,2024-04-25 13h52.25.604167 +0200,
./images_beh/Sphere_CW-1.5_BG-grey_stim-white.png,0,253,253,253,259.0278955780086,,,,,,,,,,258.9817801300087,259.0491561209783,259.0491561209783,259.80041284300387,259.79377248696983,259.978147510963,None,0,,,,,sub-003,ses-control-base-l-2,run-1,grey,2024-04-25_13h52.07.159,VDT,2023.2.3,None,2024-04-25 13h52.25.604167 +0200,
./images_beh/Sphere_CCW-1.5_BG-grey_stim-white.png,0,254,254,254,260.02604483399773,,,,,,,,,,259.97907209198456,260.0495630329824,260.0495630329824,260.8002488409984,260.7931280829944,261.00035852601286,None,0,,,,,sub-003,ses-control-base-l-2,run-1,grey,2024-04-25_13h52.07.159,VDT,2023.2.3,None,2024-04-25 13h52.25.604167 +0200,
./images_beh/Sphere_Ref_BG-grey_stim-yellow.png,0,255,255,255,261.0433359859744,,,,,,,,,,261.00094060297124,261.0488765980117,261.0488765980117,261.7999906099867,261.79269054398173,262.0796316979686,['space'],0,0.40274378698086366,None,262.0477805630071,262.04263005196117,sub-003,ses-control-base-l-2,run-1,grey,2024-04-25_13h52.07.159,VDT,2023.2.3,None,2024-04-25 13h52.25.604167 +0200,
./images_beh/Sphere_Ref_BG-grey_stim-white.png,0,256,256,256,262.1291268370114,,,,,,,,,,262.0805654699798,262.1291268370114,262.1291268370114,262.80008954397636,262.878142113972,262.99942170100985,None,0,,,,,sub-003,ses-control-base-l-2,run-1,grey,2024-04-25_13h52.07.159,VDT,2023.2.3,None,2024-04-25 13h52.25.604167 +0200,
./images_beh/Sphere_CCW-1.5_BG-grey_stim-white.png,0,257,257,257,263.04394820699235,,,,,,,,,,263.0002206469653,263.0583486169926,263.0583486169926,263.79821238899603,263.79821238899603,263.9997004689649,None,0,,,,,sub-003,ses-control-base-l-2,run-1,grey,2024-04-25_13h52.07.159,VDT,2023.2.3,None,2024-04-25 13h52.25.604167 +0200,
./images_beh/Sphere_CCW-1.5_BG-grey_stim-white.png,0,258,258,258,264.04743422497995,,,,,,,,,,264.00041863595834,264.0582887909841,264.0582887909841,264.79815392399905,264.79815392399905,265.0274878189666,None,0,,,,,sub-003,ses-control-base-l-2,run-1,grey,2024-04-25_13h52.07.159,VDT,2023.2.3,None,2024-04-25 13h52.25.604167 +0200,
./images_beh/Sphere_Ref_BG-grey_stim-yellow.png,0,259,259,259,265.0746858699713,,,,,,,,,,265.02919866197044,265.0746858699713,265.0746858699713,265.8072887730086,265.8147491529817,265.9818493700004,['space'],0,0.4972805979778059,None,,,sub-003,ses-control-base-l-2,run-1,grey,2024-04-25_13h52.07.159,VDT,2023.2.3,None,2024-04-25 13h52.25.604167 +0200,
./images_beh/Sphere_CCW-1.5_BG-grey_stim-white.png,0,260,260,260,266.0305551009951,,,,,,,,,,265.98279246798484,266.04608916898724,266.04608916898724,266.79777562001254,266.79040935100056,267.0582720359671,None,0,,,267.04490498499945,267.0398916269769,sub-003,ses-control-base-l-2,run-1,grey,2024-04-25_13h52.07.159,VDT,2023.2.3,None,2024-04-25 13h52.25.604167 +0200,
./images_beh/Sphere_CW-1.5_BG-grey_stim-white.png,0,261,261,261,267.10710974998074,,,,,,,,,,267.0590268619708,267.10710974998074,267.10710974998074,267.80631061497843,267.85586818598676,268.0129827099736,None,0,,,,,sub-003,ses-control-base-l-2,run-1,grey,2024-04-25_13h52.07.159,VDT,2023.2.3,None,2024-04-25 13h52.25.604167 +0200,
./images_beh/Sphere_CCW-1.5_BG-grey_stim-white.png,0,262,262,262,268.0542099919985,,,,,,,,,,268.0135199360084,268.0542099919985,268.0542099919985,268.8057176399743,268.79494455299573,269.039595411974,None,0,,,,,sub-003,ses-control-base-l-2,run-1,grey,2024-04-25_13h52.07.159,VDT,2023.2.3,None,2024-04-25 13h52.25.604167 +0200,
./images_beh/Sphere_CW-1.5_BG-grey_stim-yellow.png,0,263,263,263,269.08657534298254,,,,,,,,,,269.0405297559919,269.08657534298254,269.08657534298254,269.8046977829654,269.82797573995776,269.9726534799556,['space'],0,0.4705684070358984,None,,,sub-003,ses-control-base-l-2,run-1,grey,2024-04-25_13h52.07.159,VDT,2023.2.3,None,2024-04-25 13h52.25.604167 +0200,
./images_beh/Sphere_Ref_BG-grey_stim-white.png,0,264,264,264,270.018742611981,,,,,,,,,,269.9736856149975,270.055000947963,270.055000947963,270.80470066698035,270.7943410089938,271.0254100380116,None,0,,,,,sub-003,ses-control-base-l-2,run-1,grey,2024-04-25_13h52.07.159,VDT,2023.2.3,None,2024-04-25 13h52.25.604167 +0200,
./images_beh/Sphere_CW-1.5_BG-grey_stim-white.png,0,265,265,265,271.07248065801105,,,,,,,,,,271.02613089000806,271.07248065801105,271.07248065801105,271.8039007029729,271.8206090909662,271.97902390296804,None,0,,,,,sub-003,ses-control-base-l-2,run-1,grey,2024-04-25_13h52.07.159,VDT,2023.2.3,None,2024-04-25 13h52.25.604167 +0200,
./images_beh/Sphere_CCW-1.5_BG-grey_stim-yellow.png,0,266,266,266,272.0268676519627,,,,,,,,,,271.97973915201146,272.0538320989581,272.0538320989581,272.80354015296325,272.7928865699796,273.02630960498936,['space'],0,0.41422011697432026,None,,,sub-003,ses-control-base-l-2,run-1,grey,2024-04-25_13h52.07.159,VDT,2023.2.3,None,2024-04-25 13h52.25.604167 +0200,
./images_beh/Sphere_CW-1.5_BG-grey_stim-white.png,0,267,267,267,273.06769958499353,,,,,,,,,,273.02694393799175,273.06769958499353,273.06769958499353,273.80283348599914,273.80935775197577,274.0035968759912,None,0,,,,,sub-003,ses-control-base-l-2,run-1,grey,2024-04-25_13h52.07.159,VDT,2023.2.3,None,2024-04-25 13h52.25.604167 +0200,
./images_beh/Sphere_CW-1.5_BG-grey_stim-white.png,0,268,268,268,274.04731598700164,,,,,,,,,,274.00461575499503,274.052365386975,274.052365386975,274.8024193029851,274.79232236300595,274.99281679996056,None,0,,,,,sub-003,ses-control-base-l-2,run-1,grey,2024-04-25_13h52.07.159,VDT,2023.2.3,None,2024-04-25 13h52.25.604167 +0200,
./images_beh/Sphere_CCW-1.5_BG-grey_stim-white.png,0,269,269,269,275.0375950890011,,,,,,,,,,274.9934925339767,275.0576739999815,275.0576739999815,275.801930163987,275.801930163987,276.0409920429811,None,0,,,276.04037454299396,,sub-003,ses-control-base-l-2,run-1,grey,2024-04-25_13h52.07.159,VDT,2023.2.3,None,2024-04-25 13h52.25.604167 +0200,
