image,trials.thisRepN,trials.thisTrialN,trials.thisN,trials.thisIndex,thisRow.t,notes,WaitingForScannerTrigger.started,Vertical.started,key_resp.started,WaitingForScannerTrigger.stopped,key_resp.keys,key_resp.corr,key_resp.rt,key_resp.duration,VDT.started,PresentedLine1.started,key_resp_2.started,FixDot2.started,PresentedLine1.stopped,VDT.stopped,key_resp_2.keys,key_resp_2.corr,key_resp_2.rt,key_resp_2.duration,key_resp_2.stopped,FixDot2.stopped,participant,session,run,BG_color,date,expName,psychopyVersion,frameRate,expStart,
,,,,,,,0.003905655990820378,0.008806377009022981,0.008806377009022981,1.777346430986654,s,0,1.7280550229479559,None,,,,,,,,,,,,,sub-sepehr,ses-control-stim-z-2,run-1,grey,2024-04-25_12h58.27.439,VDT,2023.2.3,None,2024-04-25 12h58.59.838183 +0200,
./images_beh/Sphere_CW-1.5_BG-grey_stim-white.png,0,0,0,0,1.8364639630308375,,,,,,,,,,1.7962389210006222,1.8364639630308375,1.8364639630308375,2.5238447960000485,2.5811046700109728,2.747894781001378,None,0,,,,,sub-sepehr,ses-control-stim-z-2,run-1,grey,2024-04-25_12h58.27.439,VDT,2023.2.3,None,2024-04-25 12h58.59.838183 +0200,
./images_beh/Sphere_CCW-1.5_BG-grey_stim-white.png,0,1,1,1,2.7985712559893727,,,,,,,,,,2.7502409130102023,2.7985712559893727,2.7985712559893727,3.5230978850158863,3.547036215022672,3.74101530801272,None,0,,,,,sub-sepehr,ses-control-stim-z-2,run-1,grey,2024-04-25_12h58.27.439,VDT,2023.2.3,None,2024-04-25 12h58.59.838183 +0200,
./images_beh/Sphere_CCW-1.5_BG-grey_stim-white.png,0,2,2,2,3.786415581998881,,,,,,,,,,3.741838505025953,3.786415581998881,3.786415581998881,4.5229931169888005,4.530011383991223,4.713431459036656,None,0,,,,,sub-sepehr,ses-control-stim-z-2,run-1,grey,2024-04-25_12h58.27.439,VDT,2023.2.3,None,2024-04-25 12h58.59.838183 +0200,
./images_beh/Sphere_Ref_BG-grey_stim-yellow.png,0,3,3,3,4.7589068920351565,,,,,,,,,,4.714026364032179,4.7777796990121715,4.7777796990121715,5.522560485987924,5.522560485987924,5.705442177015357,['space'],0,0.47953661502106115,None,,,sub-sepehr,ses-control-stim-z-2,run-1,grey,2024-04-25_12h58.27.439,VDT,2023.2.3,None,2024-04-25 12h58.59.838183 +0200,
./images_beh/Sphere_CCW-1.5_BG-grey_stim-white.png,0,4,4,4,5.741208877007011,,,,,,,,,,5.706568775000051,5.778227146016434,5.778227146016434,6.521817777014803,6.521817777014803,6.7224301070091315,None,0,,,,,sub-sepehr,ses-control-stim-z-2,run-1,grey,2024-04-25_12h58.27.439,VDT,2023.2.3,None,2024-04-25 12h58.59.838183 +0200,
./images_beh/Sphere_CCW-1.5_BG-grey_stim-white.png,0,5,5,5,6.768542863021139,,,,,,,,,,6.723386219993699,6.788370769005269,6.788370769005269,7.521322651999071,7.528350467036944,7.70567056001164,None,0,,,,,sub-sepehr,ses-control-stim-z-2,run-1,grey,2024-04-25_12h58.27.439,VDT,2023.2.3,None,2024-04-25 12h58.59.838183 +0200,
./images_beh/Sphere_CCW-1.5_BG-grey_stim-white.png,0,6,6,6,7.752828832017258,,,,,,,,,,7.706590127025265,7.776657706010155,7.776657706010155,8.520770294009708,8.520770294009708,8.711160937033128,None,0,,,,,sub-sepehr,ses-control-stim-z-2,run-1,grey,2024-04-25_12h58.27.439,VDT,2023.2.3,None,2024-04-25 12h58.59.838183 +0200,
./images_beh/Sphere_CCW-1.5_BG-grey_stim-yellow.png,0,7,7,7,8.756064070039429,,,,,,,,,,8.71175353700528,8.776382645999547,8.776382645999547,9.520175798039418,9.520175798039418,9.720927669026423,['space'],0,0.4798141030478291,None,,,sub-sepehr,ses-control-stim-z-2,run-1,grey,2024-04-25_12h58.27.439,VDT,2023.2.3,None,2024-04-25 12h58.59.838183 +0200,
./images_beh/Sphere_CW-1.5_BG-grey_stim-white.png,0,8,8,8,9.770914468041155,,,,,,,,,,9.722519128001295,9.775818293041084,9.775818293041084,10.519596211030148,10.519596211030148,10.720137786003761,None,0,,,,,sub-sepehr,ses-control-stim-z-2,run-1,grey,2024-04-25_12h58.27.439,VDT,2023.2.3,None,2024-04-25 12h58.59.838183 +0200,
./images_beh/Sphere_Ref_BG-grey_stim-white.png,0,9,9,9,10.764702352986205,,,,,,,,,,10.721058075025212,10.769521673035342,10.769521673035342,11.526756909035612,11.519464700017124,11.744421257986687,None,0,,,,,sub-sepehr,ses-control-stim-z-2,run-1,grey,2024-04-25_12h58.27.439,VDT,2023.2.3,None,2024-04-25 12h58.59.838183 +0200,
./images_beh/Sphere_Ref_BG-grey_stim-yellow.png,0,10,10,10,11.794922720990144,,,,,,,,,,11.74515017401427,11.794922720990144,11.794922720990144,12.526150080026127,12.555370999034494,12.727522034023423,['space'],0,0.47037902899319306,None,,,sub-sepehr,ses-control-stim-z-2,run-1,grey,2024-04-25_12h58.27.439,VDT,2023.2.3,None,2024-04-25 12h58.59.838183 +0200,
./images_beh/Sphere_CW-1.5_BG-grey_stim-white.png,0,11,11,11,12.775786165031604,,,,,,,,,,12.728462083032355,12.784866434987634,12.784866434987634,13.535663116024807,13.535663116024807,13.7216747670318,None,0,,,,,sub-sepehr,ses-control-stim-z-2,run-1,grey,2024-04-25_12h58.27.439,VDT,2023.2.3,None,2024-04-25 12h58.59.838183 +0200,
./images_beh/Sphere_CW-1.5_BG-grey_stim-white.png,0,12,12,12,13.770748011011165,,,,,,,,,,13.722463530022651,13.78527649200987,13.78527649200987,14.525131163012702,14.525131163012702,14.724325971037615,None,0,,,,,sub-sepehr,ses-control-stim-z-2,run-1,grey,2024-04-25_12h58.27.439,VDT,2023.2.3,None,2024-04-25 12h58.59.838183 +0200,
./images_beh/Sphere_CW-1.5_BG-grey_stim-yellow.png,0,13,13,13,14.771425287995953,,,,,,,,,,14.725088170031086,14.784086717991158,14.784086717991158,15.52439009200316,15.52439009200316,15.751345433003735,['space'],0,0.440522720979061,None,,,sub-sepehr,ses-control-stim-z-2,run-1,grey,2024-04-25_12h58.27.439,VDT,2023.2.3,None,2024-04-25 12h58.59.838183 +0200,
./images_beh/Sphere_CCW-1.5_BG-grey_stim-white.png,0,14,14,14,15.799163102987222,,,,,,,,,,15.752706780040171,15.799163102987222,15.799163102987222,16.525005982024595,16.539589152031112,16.70135157799814,None,0,,,,,sub-sepehr,ses-control-stim-z-2,run-1,grey,2024-04-25_12h58.27.439,VDT,2023.2.3,None,2024-04-25 12h58.59.838183 +0200,
./images_beh/Sphere_CW-1.5_BG-grey_stim-white.png,0,15,15,15,16.749162713997066,,,,,,,,,,16.702142779016867,16.77246229699813,16.77246229699813,17.53611741203349,17.51960198598681,17.724349834024906,None,0,,,,,sub-sepehr,ses-control-stim-z-2,run-1,grey,2024-04-25_12h58.27.439,VDT,2023.2.3,None,2024-04-25 12h58.59.838183 +0200,
./images_beh/Sphere_Ref_BG-grey_stim-white.png,0,16,16,16,17.772084683005232,,,,,,,,,,17.725069752021227,17.782895223004743,17.782895223004743,18.532401533040684,18.532401533040684,18.739533153013326,None,0,,,,,sub-sepehr,ses-control-stim-z-2,run-1,grey,2024-04-25_12h58.27.439,VDT,2023.2.3,None,2024-04-25 12h58.59.838183 +0200,
./images_beh/Sphere_CW-1.5_BG-grey_stim-white.png,0,17,17,17,18.785682195040863,,,,,,,,,,18.740112653002143,18.785682195040863,18.785682195040863,19.53506321000168,19.548900294990744,19.77407685603248,None,0,,,,,sub-sepehr,ses-control-stim-z-2,run-1,grey,2024-04-25_12h58.27.439,VDT,2023.2.3,None,2024-04-25 12h58.59.838183 +0200,
./images_beh/Sphere_CCW-1.5_BG-grey_stim-white.png,0,18,18,18,19.82353711599717,,,,,,,,,,19.774799828010146,19.82353711599717,19.82353711599717,20.52319900400471,20.56483325402951,20.7161120439996,None,0,,,,,sub-sepehr,ses-control-stim-z-2,run-1,grey,2024-04-25_12h58.27.439,VDT,2023.2.3,None,2024-04-25 12h58.59.838183 +0200,
./images_beh/Sphere_CCW-1.5_BG-grey_stim-white.png,0,19,19,19,20.765219683991745,,,,,,,,,,20.717185240006074,20.770306168007664,20.770306168007664,21.52192723302869,21.51433175901184,21.721674592001364,None,0,,,,,sub-sepehr,ses-control-stim-z-2,run-1,grey,2024-04-25_12h58.27.439,VDT,2023.2.3,None,2024-04-25 12h58.59.838183 +0200,
./images_beh/Sphere_Ref_BG-grey_stim-yellow.png,0,20,20,20,21.765198528999463,,,,,,,,,,21.722270597005263,21.780680384021252,21.780680384021252,22.52148674003547,22.52148674003547,22.719544181018136,['space'],0,0.4927064999938011,None,,,sub-sepehr,ses-control-stim-z-2,run-1,grey,2024-04-25_12h58.27.439,VDT,2023.2.3,None,2024-04-25 12h58.59.838183 +0200,
./images_beh/Sphere_CW-1.5_BG-grey_stim-white.png,0,21,21,21,22.757930024992675,,,,,,,,,,22.72010313399369,22.768765224027447,22.768765224027447,23.51934653299395,23.513143563992344,23.71349002502393,None,0,,,,,sub-sepehr,ses-control-stim-z-2,run-1,grey,2024-04-25_12h58.27.439,VDT,2023.2.3,None,2024-04-25 12h58.59.838183 +0200,
./images_beh/Sphere_Ref_BG-grey_stim-white.png,0,22,22,22,23.755127825017553,,,,,,,,,,23.71445168700302,23.768913437030278,23.768913437030278,24.529409656010102,24.515551867021713,24.763237831997685,None,0,,,24.762331667006947,,sub-sepehr,ses-control-stim-z-2,run-1,grey,2024-04-25_12h58.27.439,VDT,2023.2.3,None,2024-04-25 12h58.59.838183 +0200,
./images_beh/Sphere_CW-1.5_BG-grey_stim-white.png,0,23,23,23,24.809455699985847,,,,,,,,,,24.764471031026915,24.809455699985847,24.809455699985847,25.519475515990052,25.552015446999576,25.712854220997542,None,0,,,,,sub-sepehr,ses-control-stim-z-2,run-1,grey,2024-04-25_12h58.27.439,VDT,2023.2.3,None,2024-04-25 12h58.59.838183 +0200,
./images_beh/Sphere_Ref_BG-grey_stim-yellow.png,0,24,24,24,25.75826654501725,,,,,,,,,,25.714208496036008,25.766815174021758,25.766815174021758,26.518906935991254,26.511787142022513,26.72968073602533,['space'],0,0.4816814420046285,None,,,sub-sepehr,ses-control-stim-z-2,run-1,grey,2024-04-25_12h58.27.439,VDT,2023.2.3,None,2024-04-25 12h58.59.838183 +0200,
./images_beh/Sphere_CW-1.5_BG-grey_stim-white.png,0,25,25,25,26.77799724502256,,,,,,,,,,26.730923738039564,26.77799724502256,26.77799724502256,27.518145090027247,27.518145090027247,27.76429908402497,None,0,,,,,sub-sepehr,ses-control-stim-z-2,run-1,grey,2024-04-25_12h58.27.439,VDT,2023.2.3,None,2024-04-25 12h58.59.838183 +0200,
./images_beh/Sphere_CCW-1.5_BG-grey_stim-white.png,0,26,26,26,27.814056183036882,,,,,,,,,,27.76512110402109,27.814056183036882,27.814056183036882,28.519196543027647,28.560709321987815,28.712314889009576,None,0,,,,,sub-sepehr,ses-control-stim-z-2,run-1,grey,2024-04-25_12h58.27.439,VDT,2023.2.3,None,2024-04-25 12h58.59.838183 +0200,
./images_beh/Sphere_CCW-1.5_BG-grey_stim-white.png,0,27,27,27,28.75787475699326,,,,,,,,,,28.71310342301149,28.77712630300084,28.77712630300084,29.517075001029298,29.517075001029298,29.717824917985126,None,0,,,,,sub-sepehr,ses-control-stim-z-2,run-1,grey,2024-04-25_12h58.27.439,VDT,2023.2.3,None,2024-04-25 12h58.59.838183 +0200,
./images_beh/Sphere_CCW-1.5_BG-grey_stim-white.png,0,28,28,28,29.763235829013865,,,,,,,,,,29.718545107985847,29.776440530025866,29.776440530025866,30.517430312989745,30.517430312989745,30.71044927003095,None,0,,,,,sub-sepehr,ses-control-stim-z-2,run-1,grey,2024-04-25_12h58.27.439,VDT,2023.2.3,None,2024-04-25 12h58.59.838183 +0200,
./images_beh/Sphere_CCW-1.5_BG-grey_stim-yellow.png,0,29,29,29,30.756378513004165,,,,,,,,,,30.71154840802774,30.782207105017733,30.782207105017733,31.5260104489862,31.5260104489862,31.760126167035196,['space'],0,0.5383482920005918,None,,,sub-sepehr,ses-control-stim-z-2,run-1,grey,2024-04-25_12h58.27.439,VDT,2023.2.3,None,2024-04-25 12h58.59.838183 +0200,
./images_beh/Sphere_CW-1.5_BG-grey_stim-white.png,0,30,30,30,31.806900568015408,,,,,,,,,,31.7612111280323,31.806900568015408,31.806900568015408,32.52544078603387,32.54910214000847,32.76022858399665,None,0,,,,,sub-sepehr,ses-control-stim-z-2,run-1,grey,2024-04-25_12h58.27.439,VDT,2023.2.3,None,2024-04-25 12h58.59.838183 +0200,
./images_beh/Sphere_CW-1.5_BG-grey_stim-white.png,0,31,31,31,32.81039202102693,,,,,,,,,,32.76128762902226,32.81039202102693,32.81039202102693,33.52816327899927,33.56049476802582,33.69301029399503,None,0,,,,,sub-sepehr,ses-control-stim-z-2,run-1,grey,2024-04-25_12h58.27.439,VDT,2023.2.3,None,2024-04-25 12h58.59.838183 +0200,
./images_beh/Sphere_CW-1.5_BG-grey_stim-white.png,0,32,32,32,33.740664413024206,,,,,,,,,,33.693868032016326,33.7746587760048,33.7746587760048,34.524303114041686,34.51419229101157,34.72491373500088,None,0,,,,,sub-sepehr,ses-control-stim-z-2,run-1,grey,2024-04-25_12h58.27.439,VDT,2023.2.3,None,2024-04-25 12h58.59.838183 +0200,
./images_beh/Sphere_CW-1.5_BG-grey_stim-yellow.png,0,33,33,33,34.768264439015184,,,,,,,,,,34.725956152018625,34.773744984995574,34.773744984995574,35.524245345033705,35.51261840801453,35.70836599601898,['space'],0,0.48538669402478263,None,,,sub-sepehr,ses-control-stim-z-2,run-1,grey,2024-04-25_12h58.27.439,VDT,2023.2.3,None,2024-04-25 12h58.59.838183 +0200,
./images_beh/Sphere_Ref_BG-grey_stim-white.png,0,34,34,34,35.75528573500924,,,,,,,,,,35.709966739988886,35.7735392160248,35.7735392160248,36.523297464998905,36.51273488701554,36.73085313901538,None,0,,,,,sub-sepehr,ses-control-stim-z-2,run-1,grey,2024-04-25_12h58.27.439,VDT,2023.2.3,None,2024-04-25 12h58.59.838183 +0200,
./images_beh/Sphere_CCW-1.5_BG-grey_stim-white.png,0,35,35,35,36.77750340802595,,,,,,,,,,36.731435349036474,36.77750340802595,36.77750340802595,37.52302037400659,37.52302037400659,37.712430766026955,None,0,,,,,sub-sepehr,ses-control-stim-z-2,run-1,grey,2024-04-25_12h58.27.439,VDT,2023.2.3,None,2024-04-25 12h58.59.838183 +0200,
./images_beh/Sphere_CCW-1.5_BG-grey_stim-white.png,0,36,36,36,37.75274805299705,,,,,,,,,,37.713009383995086,37.77225101500517,37.77225101500517,38.52203658298822,38.51136593404226,38.69706034800038,None,0,,,,,sub-sepehr,ses-control-stim-z-2,run-1,grey,2024-04-25_12h58.27.439,VDT,2023.2.3,None,2024-04-25 12h58.59.838183 +0200,
./images_beh/Sphere_CW-1.5_BG-grey_stim-white.png,0,37,37,37,38.74626226001419,,,,,,,,,,38.69802597799571,38.77774973999476,38.77774973999476,39.52177039702656,39.52177039702656,39.7212758900132,None,0,,,,,sub-sepehr,ses-control-stim-z-2,run-1,grey,2024-04-25_12h58.27.439,VDT,2023.2.3,None,2024-04-25 12h58.59.838183 +0200,
./images_beh/Sphere_Ref_BG-grey_stim-yellow.png,0,38,38,38,39.7632559480262,,,,,,,,,,39.721922421013005,39.77103919000365,39.77103919000365,40.5257700420334,40.5080959550105,40.69448657799512,['space'],0,0.4455129799898714,None,,,sub-sepehr,ses-control-stim-z-2,run-1,grey,2024-04-25_12h58.27.439,VDT,2023.2.3,None,2024-04-25 12h58.59.838183 +0200,
./images_beh/Sphere_CW-1.5_BG-grey_stim-white.png,0,39,39,39,40.73460010701092,,,,,,,,,,40.69559399102582,40.77709714602679,40.77709714602679,41.52094802999636,41.52094802999636,41.77498716401169,None,0,,,41.77455311000813,41.758605181996245,sub-sepehr,ses-control-stim-z-2,run-1,grey,2024-04-25_12h58.27.439,VDT,2023.2.3,None,2024-04-25 12h58.59.838183 +0200,
./images_beh/Sphere_CCW-1.5_BG-grey_stim-white.png,0,40,40,40,41.81245296203997,,,,,,,,,,41.7753151319921,41.81245296203997,41.81245296203997,42.527675087039825,42.56062721501803,42.726612907019444,None,0,,,,,sub-sepehr,ses-control-stim-z-2,run-1,grey,2024-04-25_12h58.27.439,VDT,2023.2.3,None,2024-04-25 12h58.59.838183 +0200,
./images_beh/Sphere_CW-1.5_BG-grey_stim-yellow.png,0,41,41,41,42.77078437904129,,,,,,,,,,42.72719585103914,42.77609328000108,42.77609328000108,43.52554363803938,43.52554363803938,43.70873032999225,['space'],0,0.5470188229810447,None,,,sub-sepehr,ses-control-stim-z-2,run-1,grey,2024-04-25_12h58.27.439,VDT,2023.2.3,None,2024-04-25 12h58.59.838183 +0200,
./images_beh/Sphere_Ref_BG-grey_stim-white.png,0,42,42,42,43.74754525400931,,,,,,,,,,43.709289156016894,43.77496882004198,43.77496882004198,44.5266580490279,44.5266580490279,44.72479533503065,None,0,,,,,sub-sepehr,ses-control-stim-z-2,run-1,grey,2024-04-25_12h58.27.439,VDT,2023.2.3,None,2024-04-25 12h58.59.838183 +0200,
./images_beh/Sphere_CCW-1.5_BG-grey_stim-white.png,0,43,43,43,44.761876342003234,,,,,,,,,,44.7252249949961,44.76838665601099,44.76838665601099,45.526337506016716,45.51895100198453,45.74409441498574,None,0,,,,,sub-sepehr,ses-control-stim-z-2,run-1,grey,2024-04-25_12h58.27.439,VDT,2023.2.3,None,2024-04-25 12h58.59.838183 +0200,
./images_beh/Sphere_CW-1.5_BG-grey_stim-white.png,0,44,44,44,45.79457995801931,,,,,,,,,,45.74522394302767,45.79457995801931,45.79457995801931,46.527465151040815,46.53508221899392,46.73791905399412,None,0,,,,,sub-sepehr,ses-control-stim-z-2,run-1,grey,2024-04-25_12h58.27.439,VDT,2023.2.3,None,2024-04-25 12h58.59.838183 +0200,
./images_beh/Sphere_Ref_BG-grey_stim-yellow.png,0,45,45,45,46.787239347992,,,,,,,,,,46.738660319999326,46.787239347992,46.787239347992,47.52587430202402,47.53426536999177,47.70802306098631,['space'],0,0.5091928399633616,None,,,sub-sepehr,ses-control-stim-z-2,run-1,grey,2024-04-25_12h58.27.439,VDT,2023.2.3,None,2024-04-25 12h58.59.838183 +0200,
./images_beh/Sphere_CCW-1.5_BG-grey_stim-white.png,0,46,46,46,47.75179833400762,,,,,,,,,,47.708942444005515,47.77350157999899,47.77350157999899,48.52457168902038,48.52457168902038,48.73576773604145,None,0,,,,,sub-sepehr,ses-control-stim-z-2,run-1,grey,2024-04-25_12h58.27.439,VDT,2023.2.3,None,2024-04-25 12h58.59.838183 +0200,
./images_beh/Sphere_CW-1.5_BG-grey_stim-white.png,0,47,47,47,48.78366333601298,,,,,,,,,,48.73659848701209,48.78366333601298,48.78366333601298,49.52416070800973,49.52416070800973,49.70077436004067,None,0,,,,,sub-sepehr,ses-control-stim-z-2,run-1,grey,2024-04-25_12h58.27.439,VDT,2023.2.3,None,2024-04-25 12h58.59.838183 +0200,
./images_beh/Sphere_CCW-1.5_BG-grey_stim-yellow.png,0,48,48,48,49.746421310992446,,,,,,,,,,49.70205114298733,49.77269867702853,49.77269867702853,50.52156972902594,50.52156972902594,50.72277928801486,['space'],0,0.5002110040513799,None,,,sub-sepehr,ses-control-stim-z-2,run-1,grey,2024-04-25_12h58.27.439,VDT,2023.2.3,None,2024-04-25 12h58.59.838183 +0200,
./images_beh/Sphere_CW-1.5_BG-grey_stim-white.png,0,49,49,49,50.76832363504218,,,,,,,,,,50.723541049985215,50.78228826203849,50.78228826203849,51.52340839401586,51.52340839401586,51.68954897200456,None,0,,,,,sub-sepehr,ses-control-stim-z-2,run-1,grey,2024-04-25_12h58.27.439,VDT,2023.2.3,None,2024-04-25 12h58.59.838183 +0200,
./images_beh/Sphere_Ref_BG-grey_stim-white.png,0,50,50,50,51.73014093702659,,,,,,,,,,51.69018501002574,51.782444505020976,51.782444505020976,52.52275889203884,52.52275889203884,52.715873197012115,None,0,,,,,sub-sepehr,ses-control-stim-z-2,run-1,grey,2024-04-25_12h58.27.439,VDT,2023.2.3,None,2024-04-25 12h58.59.838183 +0200,
./images_beh/Sphere_CCW-1.5_BG-grey_stim-white.png,0,51,51,51,52.75993446999928,,,,,,,,,,52.71697343199048,52.76481434999732,52.76481434999732,53.522683793038595,53.51528282801155,53.7551547740004,None,0,,,53.75439803098561,,sub-sepehr,ses-control-stim-z-2,run-1,grey,2024-04-25_12h58.27.439,VDT,2023.2.3,None,2024-04-25 12h58.59.838183 +0200,
./images_beh/Sphere_CW-1.5_BG-grey_stim-white.png,0,52,52,52,53.80642344302032,,,,,,,,,,53.75586972798919,53.80642344302032,53.80642344302032,54.52354314702097,54.547618003038224,54.7342282430036,None,0,,,,,sub-sepehr,ses-control-stim-z-2,run-1,grey,2024-04-25_12h58.27.439,VDT,2023.2.3,None,2024-04-25 12h58.59.838183 +0200,
./images_beh/Sphere_CCW-1.5_BG-grey_stim-white.png,0,53,53,53,54.78055684902938,,,,,,,,,,54.7349532340304,54.78055684902938,54.78055684902938,55.53367727098521,55.53367727098521,55.6981191720115,None,0,,,,,sub-sepehr,ses-control-stim-z-2,run-1,grey,2024-04-25_12h58.27.439,VDT,2023.2.3,None,2024-04-25 12h58.59.838183 +0200,
./images_beh/Sphere_Ref_BG-grey_stim-white.png,0,54,54,54,55.74496914003976,,,,,,,,,,55.699397613003384,55.76952006702777,55.76952006702777,56.52111850702204,56.51361231104238,56.75067808298627,None,0,,,,,sub-sepehr,ses-control-stim-z-2,run-1,grey,2024-04-25_12h58.27.439,VDT,2023.2.3,None,2024-04-25 12h58.59.838183 +0200,
./images_beh/Sphere_CCW-1.5_BG-grey_stim-white.png,0,55,55,55,56.80033114302205,,,,,,,,,,56.751417885010596,56.80033114302205,56.80033114302205,57.521145036036614,57.546175239025615,57.730118126026355,None,0,,,,,sub-sepehr,ses-control-stim-z-2,run-1,grey,2024-04-25_12h58.27.439,VDT,2023.2.3,None,2024-04-25 12h58.59.838183 +0200,
./images_beh/Sphere_Ref_BG-grey_stim-yellow.png,0,56,56,56,57.778675251000095,,,,,,,,,,57.731257314037066,57.778675251000095,57.778675251000095,58.51913412800059,58.51913412800059,58.732016984024085,['space'],0,0.5263874739757739,None,,,sub-sepehr,ses-control-stim-z-2,run-1,grey,2024-04-25_12h58.27.439,VDT,2023.2.3,None,2024-04-25 12h58.59.838183 +0200,
./images_beh/Sphere_CW-1.5_BG-grey_stim-white.png,0,57,57,57,58.777575307991356,,,,,,,,,,58.732999823987484,58.777575307991356,58.777575307991356,59.51870506198611,59.51870506198611,59.71238763502333,None,0,,,,,sub-sepehr,ses-control-stim-z-2,run-1,grey,2024-04-25_12h58.27.439,VDT,2023.2.3,None,2024-04-25 12h58.59.838183 +0200,
./images_beh/Sphere_CCW-1.5_BG-grey_stim-white.png,0,58,58,58,59.758046489034314,,,,,,,,,,59.71361714199884,59.767629446985666,59.767629446985666,60.51776144199539,60.51776144199539,60.711525321996305,None,0,,,,,sub-sepehr,ses-control-stim-z-2,run-1,grey,2024-04-25_12h58.27.439,VDT,2023.2.3,None,2024-04-25 12h58.59.838183 +0200,
./images_beh/Sphere_CCW-1.5_BG-grey_stim-white.png,0,59,59,59,60.753472640994005,,,,,,,,,,60.712304796034005,60.7659494500258,60.7659494500258,61.51789788500173,61.51089737098664,61.76735516299959,None,0,,,61.766528260021005,61.766528260021005,sub-sepehr,ses-control-stim-z-2,run-1,grey,2024-04-25_12h58.27.439,VDT,2023.2.3,None,2024-04-25 12h58.59.838183 +0200,
./images_beh/Sphere_CW-1.5_BG-grey_stim-yellow.png,0,60,60,60,61.81512331299018,,,,,,,,,,61.76807897200342,61.81512331299018,61.81512331299018,62.51707672904013,62.56018451001728,62.694831589993555,['space'],0,0.5147937519941479,None,,,sub-sepehr,ses-control-stim-z-2,run-1,grey,2024-04-25_12h58.27.439,VDT,2023.2.3,None,2024-04-25 12h58.59.838183 +0200,
./images_beh/Sphere_CW-1.5_BG-grey_stim-white.png,0,61,61,61,62.741357941005845,,,,,,,,,,62.69598872202914,62.7659580000327,62.7659580000327,63.52630195004167,63.51242417603498,63.71064742200542,None,0,,,,,sub-sepehr,ses-control-stim-z-2,run-1,grey,2024-04-25_12h58.27.439,VDT,2023.2.3,None,2024-04-25 12h58.59.838183 +0200,
./images_beh/Sphere_Ref_BG-grey_stim-white.png,0,62,62,62,63.75864180899225,,,,,,,,,,63.71169531502528,63.77608043100918,63.77608043100918,64.52562659303658,64.51476821000688,64.75920755200787,None,0,,,,,sub-sepehr,ses-control-stim-z-2,run-1,grey,2024-04-25_12h58.27.439,VDT,2023.2.3,None,2024-04-25 12h58.59.838183 +0200,
./images_beh/Sphere_CW-1.5_BG-grey_stim-white.png,0,63,63,63,64.79706256301142,,,,,,,,,,64.75994922098471,64.79706256301142,64.79706256301142,65.52514449501177,65.54164561198559,65.72609418601496,None,0,,,,,sub-sepehr,ses-control-stim-z-2,run-1,grey,2024-04-25_12h58.27.439,VDT,2023.2.3,None,2024-04-25 12h58.59.838183 +0200,
./images_beh/Sphere_CCW-1.5_BG-grey_stim-yellow.png,0,64,64,64,65.76867727999343,,,,,,,,,,65.7267302130349,65.7743778770091,65.7743778770091,66.5245076540159,66.51331599702826,66.7314513209858,['space'],0,0.48984016600297764,None,,,sub-sepehr,ses-control-stim-z-2,run-1,grey,2024-04-25_12h58.27.439,VDT,2023.2.3,None,2024-04-25 12h58.59.838183 +0200,
./images_beh/Sphere_CW-1.5_BG-grey_stim-white.png,0,65,65,65,66.77554990403587,,,,,,,,,,66.73220655298792,66.77554990403587,66.77554990403587,67.52405344502768,67.52405344502768,67.72509347304003,None,0,,,,,sub-sepehr,ses-control-stim-z-2,run-1,grey,2024-04-25_12h58.27.439,VDT,2023.2.3,None,2024-04-25 12h58.59.838183 +0200,
./images_beh/Sphere_CCW-1.5_BG-grey_stim-white.png,0,66,66,66,67.77048972900957,,,,,,,,,,67.7260129500064,67.79059860500274,67.79059860500274,68.52346817799844,68.53037927701371,68.75821257499047,None,0,,,,,sub-sepehr,ses-control-stim-z-2,run-1,grey,2024-04-25_12h58.27.439,VDT,2023.2.3,None,2024-04-25 12h58.59.838183 +0200,
./images_beh/Sphere_CCW-1.5_BG-grey_stim-white.png,0,67,67,67,68.80501734401332,,,,,,,,,,68.7590190609917,68.80501734401332,68.80501734401332,69.5230173310265,69.5465979630244,69.70749219303252,None,0,,,,,sub-sepehr,ses-control-stim-z-2,run-1,grey,2024-04-25_12h58.27.439,VDT,2023.2.3,None,2024-04-25 12h58.59.838183 +0200,
./images_beh/Sphere_Ref_BG-grey_stim-yellow.png,0,68,68,68,69.75290301401401,,,,,,,,,,69.70865687902551,69.77314249798656,69.77314249798656,70.52222860598704,70.51050752802985,70.73051825899165,['space'],0,0.5317559689865448,None,,,sub-sepehr,ses-control-stim-z-2,run-1,grey,2024-04-25_12h58.27.439,VDT,2023.2.3,None,2024-04-25 12h58.59.838183 +0200,
./images_beh/Sphere_CW-1.5_BG-grey_stim-white.png,0,69,69,69,70.78022930800216,,,,,,,,,,70.73171756503871,70.78022930800216,70.78022930800216,71.52211252698908,71.5284057680401,71.7292795680114,None,0,,,,,sub-sepehr,ses-control-stim-z-2,run-1,grey,2024-04-25_12h58.27.439,VDT,2023.2.3,None,2024-04-25 12h58.59.838183 +0200,
./images_beh/Sphere_CW-1.5_BG-grey_stim-white.png,0,70,70,70,71.77727651799796,,,,,,,,,,71.72999711299781,71.77727651799796,71.77727651799796,72.52138640999328,72.52138640999328,72.70585265598493,None,0,,,,,sub-sepehr,ses-control-stim-z-2,run-1,grey,2024-04-25_12h58.27.439,VDT,2023.2.3,None,2024-04-25 12h58.59.838183 +0200,
./images_beh/Sphere_CCW-1.5_BG-grey_stim-white.png,0,71,71,71,72.75378483702661,,,,,,,,,,72.70675286202459,72.77718080399791,72.77718080399791,73.52121935301693,73.52121935301693,73.71166971098864,None,0,,,,,sub-sepehr,ses-control-stim-z-2,run-1,grey,2024-04-25_12h58.27.439,VDT,2023.2.3,None,2024-04-25 12h58.59.838183 +0200,
./images_beh/Sphere_CW-1.5_BG-grey_stim-white.png,0,72,72,72,73.75794686103472,,,,,,,,,,73.71239686198533,73.77677018602844,73.77677018602844,74.52065370202763,74.52065370202763,74.74506410199683,None,0,,,,,sub-sepehr,ses-control-stim-z-2,run-1,grey,2024-04-25_12h58.27.439,VDT,2023.2.3,None,2024-04-25 12h58.59.838183 +0200,
./images_beh/Sphere_Ref_BG-grey_stim-white.png,0,73,73,73,74.79439222603105,,,,,,,,,,74.7457867609919,74.79439222603105,74.79439222603105,75.52013551304117,75.53651107201586,75.72056347300531,None,0,,,,,sub-sepehr,ses-control-stim-z-2,run-1,grey,2024-04-25_12h58.27.439,VDT,2023.2.3,None,2024-04-25 12h58.59.838183 +0200,
./images_beh/Sphere_CW-1.5_BG-grey_stim-white.png,0,74,74,74,75.76209460099926,,,,,,,,,,75.72136844298802,75.76963014499051,75.76963014499051,76.52653082099278,76.50842131103855,76.75358024303569,None,0,,,,,sub-sepehr,ses-control-stim-z-2,run-1,grey,2024-04-25_12h58.27.439,VDT,2023.2.3,None,2024-04-25 12h58.59.838183 +0200,
./images_beh/Sphere_CCW-1.5_BG-grey_stim-white.png,0,75,75,75,76.80193999200128,,,,,,,,,,76.7547579780221,76.80193999200128,76.80193999200128,77.52648906200193,77.54285168403294,77.72637841501273,None,0,,,,,sub-sepehr,ses-control-stim-z-2,run-1,grey,2024-04-25_12h58.27.439,VDT,2023.2.3,None,2024-04-25 12h58.59.838183 +0200,
./images_beh/Sphere_Ref_BG-grey_stim-white.png,0,76,76,76,77.77412628004095,,,,,,,,,,77.7271158270305,77.78538570203818,77.78538570203818,78.53741475602146,78.53741475602146,78.70947874401463,None,0,,,,,sub-sepehr,ses-control-stim-z-2,run-1,grey,2024-04-25_12h58.27.439,VDT,2023.2.3,None,2024-04-25 12h58.59.838183 +0200,
./images_beh/Sphere_Ref_BG-grey_stim-yellow.png,0,77,77,77,78.75721400399925,,,,,,,,,,78.71024045802187,78.77408452302916,78.77408452302916,79.52326370601077,79.51781943201786,79.70842099998845,['space'],0,0.5143457149970345,None,,,sub-sepehr,ses-control-stim-z-2,run-1,grey,2024-04-25_12h58.27.439,VDT,2023.2.3,None,2024-04-25 12h58.59.838183 +0200,
./images_beh/Sphere_CCW-1.5_BG-grey_stim-white.png,0,78,78,78,79.75513754499843,,,,,,,,,,79.70927465800196,79.77243759401608,79.77243759401608,80.52357770100934,80.51780266000424,80.72408777300734,None,0,,,,,sub-sepehr,ses-control-stim-z-2,run-1,grey,2024-04-25_12h58.27.439,VDT,2023.2.3,None,2024-04-25 12h58.59.838183 +0200,
./images_beh/Sphere_CW-1.5_BG-grey_stim-white.png,0,79,79,79,80.76801086601336,,,,,,,,,,80.72477542003617,80.78376488602953,80.78376488602953,81.52283571299631,81.52283571299631,81.7412846260122,None,0,,,,,sub-sepehr,ses-control-stim-z-2,run-1,grey,2024-04-25_12h58.27.439,VDT,2023.2.3,None,2024-04-25 12h58.59.838183 +0200,
./images_beh/Sphere_CCW-1.5_BG-grey_stim-yellow.png,0,80,80,80,81.78778179502115,,,,,,,,,,81.74201528599951,81.78778179502115,81.78778179502115,82.52428490802413,82.53305932099465,82.69032258400694,['space'],0,0.5009533379925415,None,,,sub-sepehr,ses-control-stim-z-2,run-1,grey,2024-04-25_12h58.27.439,VDT,2023.2.3,None,2024-04-25 12h58.59.838183 +0200,
./images_beh/Sphere_CCW-1.5_BG-grey_stim-white.png,0,81,81,81,82.73436238901922,,,,,,,,,,82.69108121201862,82.77195018302882,82.77195018302882,83.5229692219873,83.51623496902175,83.73409362300299,None,0,,,,,sub-sepehr,ses-control-stim-z-2,run-1,grey,2024-04-25_12h58.27.439,VDT,2023.2.3,None,2024-04-25 12h58.59.838183 +0200,
./images_beh/Sphere_CW-1.5_BG-grey_stim-white.png,0,82,82,82,83.78022782702465,,,,,,,,,,83.73482841800433,83.78022782702465,83.78022782702465,84.52240767300827,84.52240767300827,84.72373429103754,None,0,,,,,sub-sepehr,ses-control-stim-z-2,run-1,grey,2024-04-25_12h58.27.439,VDT,2023.2.3,None,2024-04-25 12h58.59.838183 +0200,
./images_beh/Sphere_Ref_BG-grey_stim-yellow.png,0,83,83,83,84.77152198698604,,,,,,,,,,84.72445432603126,84.78174863703316,84.78174863703316,85.52119833702454,85.52119833702454,85.71543206402566,['space'],0,0.5147227059933357,None,,,sub-sepehr,ses-control-stim-z-2,run-1,grey,2024-04-25_12h58.27.439,VDT,2023.2.3,None,2024-04-25 12h58.59.838183 +0200,
./images_beh/Sphere_CW-1.5_BG-grey_stim-white.png,0,84,84,84,85.76220967399422,,,,,,,,,,85.71722317003878,85.76769524504198,85.76769524504198,86.52205823402619,86.51467953802785,86.734561802994,None,0,,,,,sub-sepehr,ses-control-stim-z-2,run-1,grey,2024-04-25_12h58.27.439,VDT,2023.2.3,None,2024-04-25 12h58.59.838183 +0200,
./images_beh/Sphere_CW-1.5_BG-grey_stim-white.png,0,85,85,85,86.7839052079944,,,,,,,,,,86.73530672700144,86.7839052079944,86.7839052079944,87.52195457404014,87.53057846799493,87.74843367101857,None,0,,,,,sub-sepehr,ses-control-stim-z-2,run-1,grey,2024-04-25_12h58.27.439,VDT,2023.2.3,None,2024-04-25 12h58.59.838183 +0200,
./images_beh/Sphere_CCW-1.5_BG-grey_stim-white.png,0,86,86,86,87.79469800001243,,,,,,,,,,87.74923831998603,87.79469800001243,87.79469800001243,88.5327767439885,88.55013429303654,88.68129665503511,None,0,,,,,sub-sepehr,ses-control-stim-z-2,run-1,grey,2024-04-25_12h58.27.439,VDT,2023.2.3,None,2024-04-25 12h58.59.838183 +0200,
./images_beh/Sphere_CW-1.5_BG-grey_stim-yellow.png,0,87,87,87,88.72888194903499,,,,,,,,,,88.68209347198717,88.77008554601343,88.77008554601343,89.51897560502402,89.51897560502402,89.69674428302096,['space'],0,0.4786781400325708,None,,,sub-sepehr,ses-control-stim-z-2,run-1,grey,2024-04-25_12h58.27.439,VDT,2023.2.3,None,2024-04-25 12h58.59.838183 +0200,
./images_beh/Sphere_CCW-1.5_BG-grey_stim-white.png,0,88,88,88,89.73677042702911,,,,,,,,,,89.69773746503051,89.76787192199845,89.76787192199845,90.51984106202144,90.51267489400925,90.71433932799846,None,0,,,,,sub-sepehr,ses-control-stim-z-2,run-1,grey,2024-04-25_12h58.27.439,VDT,2023.2.3,None,2024-04-25 12h58.59.838183 +0200,
./images_beh/Sphere_CCW-1.5_BG-grey_stim-white.png,0,89,89,89,90.76151057903189,,,,,,,,,,90.71508898300817,90.76735622802516,90.76735622802516,91.51869156502653,91.51198409101926,91.69816889602225,None,0,,,,,sub-sepehr,ses-control-stim-z-2,run-1,grey,2024-04-25_12h58.27.439,VDT,2023.2.3,None,2024-04-25 12h58.59.838183 +0200,
./images_beh/Sphere_CCW-1.5_BG-grey_stim-white.png,0,90,90,90,91.74322653899435,,,,,,,,,,91.69891073502367,91.76718681503553,91.76718681503553,92.52832572499756,92.52832572499756,92.7356484089978,None,0,,,,,sub-sepehr,ses-control-stim-z-2,run-1,grey,2024-04-25_12h58.27.439,VDT,2023.2.3,None,2024-04-25 12h58.59.838183 +0200,
./images_beh/Sphere_CCW-1.5_BG-grey_stim-white.png,0,91,91,91,92.78506442101207,,,,,,,,,,92.73624935100088,92.78506442101207,92.78506442101207,93.51876148703741,93.5277424090309,93.74518680101028,None,0,,,,,sub-sepehr,ses-control-stim-z-2,run-1,grey,2024-04-25_12h58.27.439,VDT,2023.2.3,None,2024-04-25 12h58.59.838183 +0200,
./images_beh/Sphere_CW-1.5_BG-grey_stim-white.png,0,92,92,92,93.79046794702299,,,,,,,,,,93.74583952903049,93.79046794702299,93.79046794702299,94.51956906501437,94.53386509401025,94.73506166000152,None,0,,,,,sub-sepehr,ses-control-stim-z-2,run-1,grey,2024-04-25_12h58.27.439,VDT,2023.2.3,None,2024-04-25 12h58.59.838183 +0200,
./images_beh/Sphere_Ref_BG-grey_stim-yellow.png,0,93,93,93,94.78174730599858,,,,,,,,,,94.7357907340047,94.78174730599858,94.78174730599858,95.51867271104129,95.52611970802536,95.69427453400567,['space'],0,0.538973847986199,None,,,sub-sepehr,ses-control-stim-z-2,run-1,grey,2024-04-25_12h58.27.439,VDT,2023.2.3,None,2024-04-25 12h58.59.838183 +0200,
./images_beh/Sphere_CCW-1.5_BG-grey_stim-white.png,0,94,94,94,95.7428751460393,,,,,,,,,,95.69559378700797,95.77677684801165,95.77677684801165,96.52870136400452,96.52870136400452,96.72738574602408,None,0,,,,,sub-sepehr,ses-control-stim-z-2,run-1,grey,2024-04-25_12h58.27.439,VDT,2023.2.3,None,2024-04-25 12h58.59.838183 +0200,
./images_beh/Sphere_CCW-1.5_BG-grey_stim-white.png,0,95,95,95,96.77497229899745,,,,,,,,,,96.72817450104048,96.78111065900885,96.78111065900885,97.52771152503556,97.54532830300741,97.74605049699312,None,0,,,,,sub-sepehr,ses-control-stim-z-2,run-1,grey,2024-04-25_12h58.27.439,VDT,2023.2.3,None,2024-04-25 12h58.59.838183 +0200,
./images_beh/Sphere_Ref_BG-grey_stim-white.png,0,96,96,96,97.79385020502377,,,,,,,,,,97.74678153899731,97.79385020502377,97.79385020502377,98.52514144900488,98.54184152203379,98.73279825801728,None,0,,,,,sub-sepehr,ses-control-stim-z-2,run-1,grey,2024-04-25_12h58.27.439,VDT,2023.2.3,None,2024-04-25 12h58.59.838183 +0200,
./images_beh/Sphere_CCW-1.5_BG-grey_stim-white.png,0,97,97,97,98.7810570790316,,,,,,,,,,98.73375293798745,98.7810570790316,98.7810570790316,99.52472860499984,99.53190331003862,99.69477268500486,None,0,,,,,sub-sepehr,ses-control-stim-z-2,run-1,grey,2024-04-25_12h58.27.439,VDT,2023.2.3,None,2024-04-25 12h58.59.838183 +0200,
./images_beh/Sphere_CW-1.5_BG-grey_stim-yellow.png,0,98,98,98,99.74186920200009,,,,,,,,,,99.69549774500774,99.77470244601136,99.77470244601136,100.5238840720267,100.51293468201766,100.71098202100256,['space'],0,0.427446564019192,None,,,sub-sepehr,ses-control-stim-z-2,run-1,grey,2024-04-25_12h58.27.439,VDT,2023.2.3,None,2024-04-25 12h58.59.838183 +0200,
./images_beh/Sphere_CW-1.5_BG-grey_stim-white.png,0,99,99,99,100.7582878510002,,,,,,,,,,100.71193860500352,100.77918276301352,100.77918276301352,101.52370594098466,101.52370594098466,101.74370327900397,None,0,,,,,sub-sepehr,ses-control-stim-z-2,run-1,grey,2024-04-25_12h58.27.439,VDT,2023.2.3,None,2024-04-25 12h58.59.838183 +0200,
./images_beh/Sphere_CW-1.5_BG-grey_stim-white.png,0,100,100,100,101.79177057201741,,,,,,,,,,101.74442608503159,101.79177057201741,101.79177057201741,102.5231843580259,102.53948861401295,102.70756396901561,None,0,,,,,sub-sepehr,ses-control-stim-z-2,run-1,grey,2024-04-25_12h58.27.439,VDT,2023.2.3,None,2024-04-25 12h58.59.838183 +0200,
./images_beh/Sphere_Ref_BG-grey_stim-yellow.png,0,101,101,101,102.75481306499569,,,,,,,,,,102.70835105900187,102.77908558602212,102.77908558602212,103.52240241499385,103.52240241499385,103.77820786001394,['space'],0,0.47864647599635646,None,103.77733106300002,103.76128121599322,sub-sepehr,ses-control-stim-z-2,run-1,grey,2024-04-25_12h58.27.439,VDT,2023.2.3,None,2024-04-25 12h58.59.838183 +0200,
./images_beh/Sphere_CCW-1.5_BG-grey_stim-white.png,0,102,102,102,103.82797241600929,,,,,,,,,,103.7792565000127,103.82797241600929,103.82797241600929,104.5220891580102,104.57186309498502,104.73952856002143,None,0,,,,,sub-sepehr,ses-control-stim-z-2,run-1,grey,2024-04-25_12h58.27.439,VDT,2023.2.3,None,2024-04-25 12h58.59.838183 +0200,
./images_beh/Sphere_CW-1.5_BG-grey_stim-white.png,0,103,103,103,104.78722672100412,,,,,,,,,,104.74049322301289,104.78722672100412,104.78722672100412,105.52151349902852,105.52775924099842,105.69579393899767,None,0,,,,,sub-sepehr,ses-control-stim-z-2,run-1,grey,2024-04-25_12h58.27.439,VDT,2023.2.3,None,2024-04-25 12h58.59.838183 +0200,
./images_beh/Sphere_CCW-1.5_BG-grey_stim-yellow.png,0,104,104,104,105.74604236299638,,,,,,,,,,105.69671212002868,105.7775730949943,105.7775730949943,106.52089894399978,106.52089894399978,106.71153306501219,['space'],0,0.4309860320063308,None,,,sub-sepehr,ses-control-stim-z-2,run-1,grey,2024-04-25_12h58.27.439,VDT,2023.2.3,None,2024-04-25 12h58.59.838183 +0200,
./images_beh/Sphere_CW-1.5_BG-grey_stim-white.png,0,105,105,105,106.75688429101137,,,,,,,,,,106.71242636902025,106.77623749402119,106.77623749402119,107.52051132300403,107.52051132300403,107.70500554499449,None,0,,,,,sub-sepehr,ses-control-stim-z-2,run-1,grey,2024-04-25_12h58.27.439,VDT,2023.2.3,None,2024-04-25 12h58.59.838183 +0200,
./images_beh/Sphere_Ref_BG-grey_stim-white.png,0,106,106,106,107.75119129300583,,,,,,,,,,107.70578931603814,107.77546692901524,107.77546692901524,108.51968639501138,108.51968639501138,108.7368381160195,None,0,,,,,sub-sepehr,ses-control-stim-z-2,run-1,grey,2024-04-25_12h58.27.439,VDT,2023.2.3,None,2024-04-25 12h58.59.838183 +0200,
./images_beh/Sphere_CW-1.5_BG-grey_stim-white.png,0,107,107,107,108.778745816031,,,,,,,,,,108.73758607002674,108.778745816031,108.778745816031,109.5257585120271,109.5257585120271,109.70985613600351,None,0,,,,,sub-sepehr,ses-control-stim-z-2,run-1,grey,2024-04-25_12h58.27.439,VDT,2023.2.3,None,2024-04-25 12h58.59.838183 +0200,
./images_beh/Sphere_CCW-1.5_BG-grey_stim-white.png,0,108,108,108,109.75359773403034,,,,,,,,,,109.71054211701266,109.7741203919868,109.7741203919868,110.52547807601513,110.51884707703721,110.70943632500712,None,0,,,,,sub-sepehr,ses-control-stim-z-2,run-1,grey,2024-04-25_12h58.27.439,VDT,2023.2.3,None,2024-04-25 12h58.59.838183 +0200,
./images_beh/Sphere_CCW-1.5_BG-grey_stim-white.png,0,109,109,109,110.75519639899721,,,,,,,,,,110.71028926002327,110.77451739204116,110.77451739204116,111.52546240203083,111.51822230202379,111.71913692902308,None,0,,,,,sub-sepehr,ses-control-stim-z-2,run-1,grey,2024-04-25_12h58.27.439,VDT,2023.2.3,None,2024-04-25 12h58.59.838183 +0200,
./images_beh/Sphere_CW-1.5_BG-grey_stim-yellow.png,0,110,110,110,111.76288006699178,,,,,,,,,,111.7202191260294,111.76771512703272,111.76771512703272,112.52297465101583,112.50505737500498,112.76874102902366,['space'],0,0.4483923660009168,None,112.76776654302375,,sub-sepehr,ses-control-stim-z-2,run-1,grey,2024-04-25_12h58.27.439,VDT,2023.2.3,None,2024-04-25 12h58.59.838183 +0200,
./images_beh/Sphere_CCW-1.5_BG-grey_stim-white.png,0,111,111,111,112.81659129203763,,,,,,,,,,112.77006317302585,112.81659129203763,112.81659129203763,113.53667112503899,113.56778914202005,113.75904096104205,None,0,,,,,sub-sepehr,ses-control-stim-z-2,run-1,grey,2024-04-25_12h58.27.439,VDT,2023.2.3,None,2024-04-25 12h58.59.838183 +0200,
./images_beh/Sphere_Ref_BG-grey_stim-white.png,0,112,112,112,113.8065980480169,,,,,,,,,,113.75977234001039,113.8065980480169,113.8065980480169,114.52525561803486,114.55320988502353,114.77037882298464,None,0,,,,,sub-sepehr,ses-control-stim-z-2,run-1,grey,2024-04-25_12h58.27.439,VDT,2023.2.3,None,2024-04-25 12h58.59.838183 +0200,
./images_beh/Sphere_CW-1.5_BG-grey_stim-white.png,0,113,113,113,114.818915432028,,,,,,,,,,114.77110488602193,114.818915432028,114.818915432028,115.52422373404261,115.5668573040166,115.73625919403275,None,0,,,,,sub-sepehr,ses-control-stim-z-2,run-1,grey,2024-04-25_12h58.27.439,VDT,2023.2.3,None,2024-04-25 12h58.59.838183 +0200,
./images_beh/Sphere_CCW-1.5_BG-grey_stim-white.png,0,114,114,114,115.78351062600268,,,,,,,,,,115.73702326399507,115.78351062600268,115.78351062600268,116.52364728203975,116.53498740401119,116.75589186704019,None,0,,,,,sub-sepehr,ses-control-stim-z-2,run-1,grey,2024-04-25_12h58.27.439,VDT,2023.2.3,None,2024-04-25 12h58.59.838183 +0200,
./images_beh/Sphere_Ref_BG-grey_stim-white.png,0,115,115,115,116.80138748703757,,,,,,,,,,116.75663841300411,116.80138748703757,116.80138748703757,117.5223183670314,117.5489403620013,117.73340932599967,None,0,,,,,sub-sepehr,ses-control-stim-z-2,run-1,grey,2024-04-25_12h58.27.439,VDT,2023.2.3,None,2024-04-25 12h58.59.838183 +0200,
./images_beh/Sphere_Ref_BG-grey_stim-yellow.png,0,116,116,116,117.78022612602217,,,,,,,,,,117.73426023102365,117.78022612602217,117.78022612602217,118.53427906503202,118.53427906503202,118.75631897698622,['space'],0,0.4447007999988273,None,,,sub-sepehr,ses-control-stim-z-2,run-1,grey,2024-04-25_12h58.27.439,VDT,2023.2.3,None,2024-04-25 12h58.59.838183 +0200,
./images_beh/Sphere_CCW-1.5_BG-grey_stim-white.png,0,117,117,117,118.80264288501348,,,,,,,,,,118.75727433903376,118.80264288501348,118.80264288501348,119.5209707019967,119.54724835103843,119.72083125903737,None,0,,,,,sub-sepehr,ses-control-stim-z-2,run-1,grey,2024-04-25_12h58.27.439,VDT,2023.2.3,None,2024-04-25 12h58.59.838183 +0200,
./images_beh/Sphere_CW-1.5_BG-grey_stim-white.png,0,118,118,118,119.76007068098988,,,,,,,,,,119.72122591501102,119.76483217999339,119.76483217999339,120.5179524970008,120.5130449149874,120.70474271802232,None,0,,,,,sub-sepehr,ses-control-stim-z-2,run-1,grey,2024-04-25_12h58.27.439,VDT,2023.2.3,None,2024-04-25 12h58.59.838183 +0200,
./images_beh/Sphere_CW-1.5_BG-grey_stim-white.png,0,119,119,119,120.74944361503003,,,,,,,,,,120.70534990902524,120.76876426499803,120.76876426499803,121.51982043898897,121.51294529199367,121.71334706200287,None,0,,,,,sub-sepehr,ses-control-stim-z-2,run-1,grey,2024-04-25_12h58.27.439,VDT,2023.2.3,None,2024-04-25 12h58.59.838183 +0200,
./images_beh/Sphere_CCW-1.5_BG-grey_stim-yellow.png,0,120,120,120,121.74903805099893,,,,,,,,,,121.7139635880012,121.76913424499799,121.76913424499799,122.51812039199285,122.51240588899236,122.70179992902558,['space'],0,0.5282889369991608,None,,,sub-sepehr,ses-control-stim-z-2,run-1,grey,2024-04-25_12h58.27.439,VDT,2023.2.3,None,2024-04-25 12h58.59.838183 +0200,
./images_beh/Sphere_CW-1.5_BG-grey_stim-white.png,0,121,121,121,122.73541941598523,,,,,,,,,,122.70241441199323,122.76793236902449,122.76793236902449,123.51683189900359,123.51683189900359,123.71714443300152,None,0,,,,,sub-sepehr,ses-control-stim-z-2,run-1,grey,2024-04-25_12h58.27.439,VDT,2023.2.3,None,2024-04-25 12h58.59.838183 +0200,
./images_beh/Sphere_CW-1.5_BG-grey_stim-white.png,0,122,122,122,123.75263111601816,,,,,,,,,,123.71742997900583,123.76668493199395,123.76668493199395,124.51607007603161,124.5111432140111,124.75045709603,None,0,,,,,sub-sepehr,ses-control-stim-z-2,run-1,grey,2024-04-25_12h58.27.439,VDT,2023.2.3,None,2024-04-25 12h58.59.838183 +0200,
./images_beh/Sphere_Ref_BG-grey_stim-yellow.png,0,123,123,123,124.78428833099315,,,,,,,,,,124.75075961003313,124.78428833099315,124.78428833099315,125.51814621099038,125.52766753203468,125.73158200399484,['space'],0,0.5358059749705717,None,,,sub-sepehr,ses-control-stim-z-2,run-1,grey,2024-04-25_12h58.27.439,VDT,2023.2.3,None,2024-04-25 12h58.59.838183 +0200,
./images_beh/Sphere_CW-1.5_BG-grey_stim-white.png,0,124,124,124,125.77832496998599,,,,,,,,,,125.73265839699889,125.77832496998599,125.77832496998599,126.51622533699265,126.52724053501152,126.69499595998786,None,0,,,,,sub-sepehr,ses-control-stim-z-2,run-1,grey,2024-04-25_12h58.27.439,VDT,2023.2.3,None,2024-04-25 12h58.59.838183 +0200,
./images_beh/Sphere_CCW-1.5_BG-grey_stim-white.png,0,125,125,125,126.74099085503258,,,,,,,,,,126.69605454202974,126.76638065802399,126.76638065802399,127.51737393002259,127.51044464804,127.68027050903765,None,0,,,,,sub-sepehr,ses-control-stim-z-2,run-1,grey,2024-04-25_12h58.27.439,VDT,2023.2.3,None,2024-04-25 12h58.59.838183 +0200,
./images_beh/Sphere_CCW-1.5_BG-grey_stim-white.png,0,126,126,126,127.72614892502315,,,,,,,,,,127.68101133202435,127.76616631099023,127.76616631099023,128.52659150399268,128.52659150399268,128.78245661000255,None,0,,,128.75965494901175,128.76510700403014,sub-sepehr,ses-control-stim-z-2,run-1,grey,2024-04-25_12h58.27.439,VDT,2023.2.3,None,2024-04-25 12h58.59.838183 +0200,
./images_beh/Sphere_Ref_BG-grey_stim-white.png,0,127,127,127,128.8279727580375,,,,,,,,,,128.7831478510052,128.8279727580375,128.8279727580375,129.52592669799924,129.5760805530008,129.73407502804184,None,0,,,,,sub-sepehr,ses-control-stim-z-2,run-1,grey,2024-04-25_12h58.27.439,VDT,2023.2.3,None,2024-04-25 12h58.59.838183 +0200,
./images_beh/Sphere_CW-1.5_BG-grey_stim-yellow.png,0,128,128,128,129.7797537340084,,,,,,,,,,129.73480750399176,129.7797537340084,129.7797537340084,130.52548910101177,130.52548910101177,130.77626254002098,['space'],0,0.46914280898636207,None,,130.77529184200102,sub-sepehr,ses-control-stim-z-2,run-1,grey,2024-04-25_12h58.27.439,VDT,2023.2.3,None,2024-04-25 12h58.59.838183 +0200,
./images_beh/Sphere_CW-1.5_BG-grey_stim-white.png,0,129,129,129,130.8245170059963,,,,,,,,,,130.77762516902294,130.8245170059963,130.8245170059963,131.52712055301527,131.56466775003355,131.70825413102284,None,0,,,,,sub-sepehr,ses-control-stim-z-2,run-1,grey,2024-04-25_12h58.27.439,VDT,2023.2.3,None,2024-04-25 12h58.59.838183 +0200,
./images_beh/Sphere_CCW-1.5_BG-grey_stim-white.png,0,130,130,130,131.74688804603647,,,,,,,,,,131.70923538302304,131.77454769902397,131.77454769902397,132.5271134400391,132.5271134400391,132.71537152602104,None,0,,,,,sub-sepehr,ses-control-stim-z-2,run-1,grey,2024-04-25_12h58.27.439,VDT,2023.2.3,None,2024-04-25 12h58.59.838183 +0200,
./images_beh/Sphere_CCW-1.5_BG-grey_stim-yellow.png,0,131,131,131,132.76050904602744,,,,,,,,,,132.71624373603845,132.77400228899205,132.77400228899205,133.52397371502593,133.51307524304138,133.70821878500283,['space'],0,0.4912633179919794,None,,,sub-sepehr,ses-control-stim-z-2,run-1,grey,2024-04-25_12h58.27.439,VDT,2023.2.3,None,2024-04-25 12h58.59.838183 +0200,
./images_beh/Sphere_CW-1.5_BG-grey_stim-white.png,0,132,132,132,133.75488594803028,,,,,,,,,,133.70977689203573,133.7796311179991,133.7796311179991,134.52629191998858,134.52629191998858,134.70792505599093,None,0,,,,,sub-sepehr,ses-control-stim-z-2,run-1,grey,2024-04-25_12h58.27.439,VDT,2023.2.3,None,2024-04-25 12h58.59.838183 +0200,
./images_beh/Sphere_CW-1.5_BG-grey_stim-white.png,0,133,133,133,134.7554007419967,,,,,,,,,,134.70933233201504,134.77353985898662,134.77353985898662,135.52581467002165,135.51237713603768,135.7140910300077,None,0,,,,,sub-sepehr,ses-control-stim-z-2,run-1,grey,2024-04-25_12h58.27.439,VDT,2023.2.3,None,2024-04-25 12h58.59.838183 +0200,
./images_beh/Sphere_CW-1.5_BG-grey_stim-white.png,0,134,134,134,135.76114953903016,,,,,,,,,,135.7148165120161,135.77261506702052,135.77261506702052,136.52236210199771,136.51191433001077,136.74047503003385,None,0,,,,,sub-sepehr,ses-control-stim-z-2,run-1,grey,2024-04-25_12h58.27.439,VDT,2023.2.3,None,2024-04-25 12h58.59.838183 +0200,
./images_beh/Sphere_CCW-1.5_BG-grey_stim-white.png,0,135,135,135,136.78776813403238,,,,,,,,,,136.74130359402625,136.78776813403238,136.78776813403238,137.54076181503478,137.54076181503478,137.69681460299762,None,0,,,,,sub-sepehr,ses-control-stim-z-2,run-1,grey,2024-04-25_12h58.27.439,VDT,2023.2.3,None,2024-04-25 12h58.59.838183 +0200,
./images_beh/Sphere_Ref_BG-grey_stim-yellow.png,0,136,136,136,137.74215157801518,,,,,,,,,,137.697544847033,137.77174915501382,137.77174915501382,138.52142367203487,138.5109692190308,138.72205235203728,['space'],0,0.44568098499439657,None,,,sub-sepehr,ses-control-stim-z-2,run-1,grey,2024-04-25_12h58.27.439,VDT,2023.2.3,None,2024-04-25 12h58.59.838183 +0200,
./images_beh/Sphere_CW-1.5_BG-grey_stim-white.png,0,137,137,137,138.7631807210273,,,,,,,,,,138.72306316299364,138.77096369402716,138.77096369402716,139.5206689540064,139.51049223303562,139.7055386850261,None,0,,,,,sub-sepehr,ses-control-stim-z-2,run-1,grey,2024-04-25_12h58.27.439,VDT,2023.2.3,None,2024-04-25 12h58.59.838183 +0200,
./images_beh/Sphere_CCW-1.5_BG-grey_stim-white.png,0,138,138,138,139.75142486800905,,,,,,,,,,139.70643259899225,139.77675789099885,139.77675789099885,140.52018565603066,140.52018565603066,140.7442766239983,None,0,,,,,sub-sepehr,ses-control-stim-z-2,run-1,grey,2024-04-25_12h58.27.439,VDT,2023.2.3,None,2024-04-25 12h58.59.838183 +0200,
./images_beh/Sphere_CCW-1.5_BG-grey_stim-white.png,0,139,139,139,140.79107979300898,,,,,,,,,,140.74501352902735,140.79107979300898,140.79107979300898,141.51956615201198,141.53668739600107,141.7441891200142,None,0,,,,,sub-sepehr,ses-control-stim-z-2,run-1,grey,2024-04-25_12h58.27.439,VDT,2023.2.3,None,2024-04-25 12h58.59.838183 +0200,
./images_beh/Sphere_CCW-1.5_BG-grey_stim-white.png,0,140,140,140,141.79213715100195,,,,,,,,,,141.7449293390382,141.79213715100195,141.79213715100195,142.52701891603647,142.53590680100024,142.72677441401174,None,0,,,,,sub-sepehr,ses-control-stim-z-2,run-1,grey,2024-04-25_12h58.27.439,VDT,2023.2.3,None,2024-04-25 12h58.59.838183 +0200,
./images_beh/Sphere_Ref_BG-grey_stim-yellow.png,0,141,141,141,142.7708236729959,,,,,,,,,,142.72735367302084,142.78562268603127,142.78562268603127,143.52584027202101,143.52584027202101,143.75339845602866,['space'],0,0.4629713390022516,None,,,sub-sepehr,ses-control-stim-z-2,run-1,grey,2024-04-25_12h58.27.439,VDT,2023.2.3,None,2024-04-25 12h58.59.838183 +0200,
./images_beh/Sphere_CW-1.5_BG-grey_stim-white.png,0,142,142,142,143.8015796690015,,,,,,,,,,143.7543969299877,143.8015796690015,143.8015796690015,144.52587017504266,144.5411564320093,144.76918133703293,None,0,,,,144.76799259299878,sub-sepehr,ses-control-stim-z-2,run-1,grey,2024-04-25_12h58.27.439,VDT,2023.2.3,None,2024-04-25 12h58.59.838183 +0200,
./images_beh/Sphere_Ref_BG-grey_stim-white.png,0,143,143,143,144.81364359299187,,,,,,,,,,144.76996738801245,144.81364359299187,144.81364359299187,145.5255868230015,145.5575639650342,145.71881057403516,None,0,,,,,sub-sepehr,ses-control-stim-z-2,run-1,grey,2024-04-25_12h58.27.439,VDT,2023.2.3,None,2024-04-25 12h58.59.838183 +0200,
./images_beh/Sphere_CW-1.5_BG-grey_stim-white.png,0,144,144,144,145.7634902060381,,,,,,,,,,145.7198989840108,145.7680830390309,145.7680830390309,146.53709891298786,146.5204298190074,146.72096741199493,None,0,,,,,sub-sepehr,ses-control-stim-z-2,run-1,grey,2024-04-25_12h58.27.439,VDT,2023.2.3,None,2024-04-25 12h58.59.838183 +0200,
./images_beh/Sphere_CW-1.5_BG-grey_stim-white.png,0,145,145,145,146.76839516602922,,,,,,,,,,146.72169999202015,146.78369155799737,146.78369155799737,147.53571392700542,147.53571392700542,147.70867574802833,None,0,,,,,sub-sepehr,ses-control-stim-z-2,run-1,grey,2024-04-25_12h58.27.439,VDT,2023.2.3,None,2024-04-25 12h58.59.838183 +0200,
./images_beh/Sphere_CW-1.5_BG-grey_stim-white.png,0,146,146,146,147.7573210039991,,,,,,,,,,147.70954608998727,147.77282355900388,147.77282355900388,148.52268168400042,148.51622865803074,148.71724293701118,None,0,,,,,sub-sepehr,ses-control-stim-z-2,run-1,grey,2024-04-25_12h58.27.439,VDT,2023.2.3,None,2024-04-25 12h58.59.838183 +0200,
./images_beh/Sphere_CW-1.5_BG-grey_stim-white.png,0,147,147,147,148.76116132899188,,,,,,,,,,148.71785674302373,148.76678729103878,148.76678729103878,149.52335505798692,149.5163189630257,149.75283057900378,None,0,,,,,sub-sepehr,ses-control-stim-z-2,run-1,grey,2024-04-25_12h58.27.439,VDT,2023.2.3,None,2024-04-25 12h58.59.838183 +0200,
./images_beh/Sphere_Ref_BG-grey_stim-white.png,0,148,148,148,149.80207509401953,,,,,,,,,,149.75356063299114,149.80207509401953,149.80207509401953,150.52299152803607,150.5486829270376,150.75650210899767,None,0,,,,,sub-sepehr,ses-control-stim-z-2,run-1,grey,2024-04-25_12h58.27.439,VDT,2023.2.3,None,2024-04-25 12h58.59.838183 +0200,
./images_beh/Sphere_Ref_BG-grey_stim-yellow.png,0,149,149,149,150.80426902900217,,,,,,,,,,150.75721976999193,150.80426902900217,150.80426902900217,151.52259386202786,151.5478294339846,151.74947605200578,['space'],0,0.4525446119951084,None,,,sub-sepehr,ses-control-stim-z-2,run-1,grey,2024-04-25_12h58.27.439,VDT,2023.2.3,None,2024-04-25 12h58.59.838183 +0200,
./images_beh/Sphere_CCW-1.5_BG-grey_stim-white.png,0,150,150,150,151.79880208300892,,,,,,,,,,151.75051742303185,151.79880208300892,151.79880208300892,152.5227159440401,152.54734427499352,152.7177895299974,None,0,,,,,sub-sepehr,ses-control-stim-z-2,run-1,grey,2024-04-25_12h58.27.439,VDT,2023.2.3,None,2024-04-25 12h58.59.838183 +0200,
./images_beh/Sphere_CCW-1.5_BG-grey_stim-white.png,0,151,151,151,152.7637012040359,,,,,,,,,,152.7185156760388,152.77003987203352,152.77003987203352,153.53055940999184,153.51691894303076,153.750974191993,None,0,,,,,sub-sepehr,ses-control-stim-z-2,run-1,grey,2024-04-25_12h58.27.439,VDT,2023.2.3,None,2024-04-25 12h58.59.838183 +0200,
./images_beh/Sphere_CW-1.5_BG-grey_stim-white.png,0,152,152,152,153.79812157398555,,,,,,,,,,153.75168925401522,153.79812157398555,153.79812157398555,154.522437756008,154.53803680103738,154.71507731999736,None,0,,,,,sub-sepehr,ses-control-stim-z-2,run-1,grey,2024-04-25_12h58.27.439,VDT,2023.2.3,None,2024-04-25 12h58.59.838183 +0200,
./images_beh/Sphere_CW-1.5_BG-grey_stim-yellow.png,0,153,153,153,154.7623688110034,,,,,,,,,,154.71641048998572,154.76847325603012,154.76847325603012,155.5203126950073,155.51296724699205,155.72132461,['space'],0,0.5127553350175731,None,,,sub-sepehr,ses-control-stim-z-2,run-1,grey,2024-04-25_12h58.27.439,VDT,2023.2.3,None,2024-04-25 12h58.59.838183 +0200,
./images_beh/Sphere_Ref_BG-grey_stim-white.png,0,154,154,154,155.76990730001125,,,,,,,,,,155.72226750903064,155.77890758099966,155.77890758099966,156.52917632699246,156.52917632699246,156.73669098998653,None,0,,,,,sub-sepehr,ses-control-stim-z-2,run-1,grey,2024-04-25_12h58.27.439,VDT,2023.2.3,None,2024-04-25 12h58.59.838183 +0200,
./images_beh/Sphere_CCW-1.5_BG-grey_stim-white.png,0,155,155,155,156.78047180501744,,,,,,,,,,156.73730776202865,156.78047180501744,156.78047180501744,157.52113696798915,157.52821367798606,157.71250321902335,None,0,,,,,sub-sepehr,ses-control-stim-z-2,run-1,grey,2024-04-25_12h58.27.439,VDT,2023.2.3,None,2024-04-25 12h58.59.838183 +0200,
./images_beh/Sphere_CCW-1.5_BG-grey_stim-yellow.png,0,156,156,156,157.75852937001036,,,,,,,,,,157.71351388201583,157.7844089079881,157.7844089079881,158.51954475202365,158.527892601036,158.74534809304168,['space'],0,0.48771224403753877,None,,,sub-sepehr,ses-control-stim-z-2,run-1,grey,2024-04-25_12h58.27.439,VDT,2023.2.3,None,2024-04-25 12h58.59.838183 +0200,
./images_beh/Sphere_CW-1.5_BG-grey_stim-white.png,0,157,157,157,158.7948584780097,,,,,,,,,,158.74672834103694,158.7948584780097,158.7948584780097,159.51797767699463,159.5347138530342,159.7310468039941,None,0,,,,,sub-sepehr,ses-control-stim-z-2,run-1,grey,2024-04-25_12h58.27.439,VDT,2023.2.3,None,2024-04-25 12h58.59.838183 +0200,
./images_beh/Sphere_CCW-1.5_BG-grey_stim-white.png,0,158,158,158,159.77906135999365,,,,,,,,,,159.73177070403472,159.77906135999365,159.77906135999365,160.52956254500896,160.52956254500896,160.76379552303115,None,0,,,,,sub-sepehr,ses-control-stim-z-2,run-1,grey,2024-04-25_12h58.27.439,VDT,2023.2.3,None,2024-04-25 12h58.59.838183 +0200,
./images_beh/Sphere_Ref_BG-grey_stim-yellow.png,0,159,159,159,160.81234291900182,,,,,,,,,,160.7645165460417,160.81234291900182,160.81234291900182,161.51764740800718,161.5597018530243,161.69382474699523,['space'],0,0.48452631797408685,None,,,sub-sepehr,ses-control-stim-z-2,run-1,grey,2024-04-25_12h58.27.439,VDT,2023.2.3,None,2024-04-25 12h58.59.838183 +0200,
./images_beh/Sphere_CCW-1.5_BG-grey_stim-white.png,0,160,160,160,161.74036735802656,,,,,,,,,,161.69527943903813,161.77618939999957,161.77618939999957,162.52593092701863,162.52593092701863,162.74579426500713,None,0,,,,,sub-sepehr,ses-control-stim-z-2,run-1,grey,2024-04-25_12h58.27.439,VDT,2023.2.3,None,2024-04-25 12h58.59.838183 +0200,
./images_beh/Sphere_CCW-1.5_BG-grey_stim-white.png,0,161,161,161,162.79403143702075,,,,,,,,,,162.74652125599096,162.79403143702075,162.79403143702075,163.52553758502472,163.54444720299216,163.7432285050163,None,0,,,,,sub-sepehr,ses-control-stim-z-2,run-1,grey,2024-04-25_12h58.27.439,VDT,2023.2.3,None,2024-04-25 12h58.59.838183 +0200,
./images_beh/Sphere_CW-1.5_BG-grey_stim-white.png,0,162,162,162,163.79056704801042,,,,,,,,,,163.74437158199726,163.79056704801042,163.79056704801042,164.52485935902223,164.53203761699842,164.7259470249992,None,0,,,,,sub-sepehr,ses-control-stim-z-2,run-1,grey,2024-04-25_12h58.27.439,VDT,2023.2.3,None,2024-04-25 12h58.59.838183 +0200,
./images_beh/Sphere_Ref_BG-grey_stim-white.png,0,163,163,163,164.7731914850301,,,,,,,,,,164.7269482589909,164.77919379802188,164.77919379802188,165.52723677799804,165.54135076102102,165.75848526798654,None,0,,,,,sub-sepehr,ses-control-stim-z-2,run-1,grey,2024-04-25_12h58.27.439,VDT,2023.2.3,None,2024-04-25 12h58.59.838183 +0200,
./images_beh/Sphere_CCW-1.5_BG-grey_stim-white.png,0,164,164,164,165.80808364303084,,,,,,,,,,165.75964546902105,165.80808364303084,165.80808364303084,166.52380577800795,166.55685117503162,166.7151539620245,None,0,,,,,sub-sepehr,ses-control-stim-z-2,run-1,grey,2024-04-25_12h58.27.439,VDT,2023.2.3,None,2024-04-25 12h58.59.838183 +0200,
./images_beh/Sphere_CCW-1.5_BG-grey_stim-white.png,0,165,165,165,166.76535194099415,,,,,,,,,,166.71639856602997,166.77282119198935,166.77282119198935,167.5239288660232,167.51250170898857,167.73183954803972,None,0,,,,,sub-sepehr,ses-control-stim-z-2,run-1,grey,2024-04-25_12h58.27.439,VDT,2023.2.3,None,2024-04-25 12h58.59.838183 +0200,
./images_beh/Sphere_CCW-1.5_BG-grey_stim-white.png,0,166,166,166,167.7813110590214,,,,,,,,,,167.73284261702793,167.7813110590214,167.7813110590214,168.522897369985,168.52954856603174,168.7067954930244,None,0,,,,,sub-sepehr,ses-control-stim-z-2,run-1,grey,2024-04-25_12h58.27.439,VDT,2023.2.3,None,2024-04-25 12h58.59.838183 +0200,
./images_beh/Sphere_Ref_BG-grey_stim-yellow.png,0,167,167,167,168.75037735298974,,,,,,,,,,168.70788101898506,168.77280053199502,168.77280053199502,169.5214161479962,169.5214161479962,169.69640252401587,['space'],0,0.43544798402581364,None,,,sub-sepehr,ses-control-stim-z-2,run-1,grey,2024-04-25_12h58.27.439,VDT,2023.2.3,None,2024-04-25 12h58.59.838183 +0200,
./images_beh/Sphere_CCW-1.5_BG-grey_stim-white.png,0,168,168,168,169.74331900902325,,,,,,,,,,169.69733796699438,169.7773566620308,169.7773566620308,170.52144271304132,170.52144271304132,170.75606873701327,None,0,,,,,sub-sepehr,ses-control-stim-z-2,run-1,grey,2024-04-25_12h58.27.439,VDT,2023.2.3,None,2024-04-25 12h58.59.838183 +0200,
./images_beh/Sphere_CW-1.5_BG-grey_stim-white.png,0,169,169,169,170.80529628001386,,,,,,,,,,170.7572211039951,170.80529628001386,170.80529628001386,171.52094610698987,171.5543823959888,171.7771849820274,None,0,,,,171.75976025802083,sub-sepehr,ses-control-stim-z-2,run-1,grey,2024-04-25_12h58.27.439,VDT,2023.2.3,None,2024-04-25 12h58.59.838183 +0200,
./images_beh/Sphere_CW-1.5_BG-grey_stim-yellow.png,0,170,170,170,171.82522856403375,,,,,,,,,,171.777904424991,171.82522856403375,171.82522856403375,172.52048606902827,172.57756936503574,172.7209424879984,['space'],0,0.45542628498515114,None,,,sub-sepehr,ses-control-stim-z-2,run-1,grey,2024-04-25_12h58.27.439,VDT,2023.2.3,None,2024-04-25 12h58.59.838183 +0200,
./images_beh/Sphere_CCW-1.5_BG-grey_stim-white.png,0,171,171,171,172.76660393201746,,,,,,,,,,172.7224127780064,172.77159056899836,172.77159056899836,173.52655364602106,173.52006554498803,173.68791593698552,None,0,,,,,sub-sepehr,ses-control-stim-z-2,run-1,grey,2024-04-25_12h58.27.439,VDT,2023.2.3,None,2024-04-25 12h58.59.838183 +0200,
./images_beh/Sphere_CW-1.5_BG-grey_stim-white.png,0,172,172,172,173.73298552102642,,,,,,,,,,173.68882590299472,173.77657417400042,173.77657417400042,174.52661417599302,174.51969398203073,174.72720570402453,None,0,,,,,sub-sepehr,ses-control-stim-z-2,run-1,grey,2024-04-25_12h58.27.439,VDT,2023.2.3,None,2024-04-25 12h58.59.838183 +0200,
./images_beh/Sphere_Ref_BG-grey_stim-yellow.png,0,173,173,173,174.77602553903125,,,,,,,,,,174.72798801399767,174.77602553903125,174.77602553903125,175.52541570801986,175.52541570801986,175.75319286598824,['space'],0,0.5292288740165532,None,,,sub-sepehr,ses-control-stim-z-2,run-1,grey,2024-04-25_12h58.27.439,VDT,2023.2.3,None,2024-04-25 12h58.59.838183 +0200,
./images_beh/Sphere_CW-1.5_BG-grey_stim-white.png,0,174,174,174,175.79961898201145,,,,,,,,,,175.75444005901227,175.79961898201145,175.79961898201145,176.52546751499176,176.54164665099233,176.68594711099286,None,0,,,,,sub-sepehr,ses-control-stim-z-2,run-1,grey,2024-04-25_12h58.27.439,VDT,2023.2.3,None,2024-04-25 12h58.59.838183 +0200,
./images_beh/Sphere_CW-1.5_BG-grey_stim-white.png,0,175,175,175,176.73100498103304,,,,,,,,,,176.68699878099142,176.7751549030072,176.7751549030072,177.52395584102487,177.51787688100012,177.6912222999963,None,0,,,,,sub-sepehr,ses-control-stim-z-2,run-1,grey,2024-04-25_12h58.27.439,VDT,2023.2.3,None,2024-04-25 12h58.59.838183 +0200,
./images_beh/Sphere_CCW-1.5_BG-grey_stim-yellow.png,0,176,176,176,177.7360757360002,,,,,,,,,,177.69191376201343,177.77442502899794,177.77442502899794,178.5230991350254,178.5230991350254,178.75811383099062,['space'],0,0.5866829449660145,None,,,sub-sepehr,ses-control-stim-z-2,run-1,grey,2024-04-25_12h58.27.439,VDT,2023.2.3,None,2024-04-25 12h58.59.838183 +0200,
./images_beh/Sphere_CCW-1.5_BG-grey_stim-white.png,0,177,177,177,178.8053934040363,,,,,,,,,,178.7590793929994,178.8053934040363,178.8053934040363,179.52376810304122,179.54998090001754,179.77322058699792,None,0,,,,179.77252305101138,sub-sepehr,ses-control-stim-z-2,run-1,grey,2024-04-25_12h58.27.439,VDT,2023.2.3,None,2024-04-25 12h58.59.838183 +0200,
./images_beh/Sphere_Ref_BG-grey_stim-white.png,0,178,178,178,179.81757930503227,,,,,,,,,,179.77381344803143,179.81757930503227,179.81757930503227,180.52371418400435,180.56867201899877,180.69016636401648,None,0,,,,,sub-sepehr,ses-control-stim-z-2,run-1,grey,2024-04-25_12h58.27.439,VDT,2023.2.3,None,2024-04-25 12h58.59.838183 +0200,
./images_beh/Sphere_CW-1.5_BG-grey_stim-white.png,0,179,179,179,180.73411084199324,,,,,,,,,,180.69090821698774,180.77230070298538,180.77230070298538,181.5215965860407,181.5158771140268,181.73605090100318,None,0,,,,,sub-sepehr,ses-control-stim-z-2,run-1,grey,2024-04-25_12h58.27.439,VDT,2023.2.3,None,2024-04-25 12h58.59.838183 +0200,
./images_beh/Sphere_CCW-1.5_BG-grey_stim-white.png,0,180,180,180,181.7839407499996,,,,,,,,,,181.73676870402414,181.7839407499996,181.7839407499996,182.52323348703794,182.53251603001263,182.73296658002073,None,0,,,,,sub-sepehr,ses-control-stim-z-2,run-1,grey,2024-04-25_12h58.27.439,VDT,2023.2.3,None,2024-04-25 12h58.59.838183 +0200,
./images_beh/Sphere_CW-1.5_BG-grey_stim-white.png,0,181,181,181,182.78155802900437,,,,,,,,,,182.73411015898455,182.78155802900437,182.78155802900437,183.53197434998583,183.53197434998583,183.70541234500706,None,0,,,,,sub-sepehr,ses-control-stim-z-2,run-1,grey,2024-04-25_12h58.27.439,VDT,2023.2.3,None,2024-04-25 12h58.59.838183 +0200,
./images_beh/Sphere_CCW-1.5_BG-grey_stim-white.png,0,182,182,182,183.75126312900102,,,,,,,,,,183.70616972999414,183.7708309040172,183.7708309040172,184.52128316799644,184.51456164603587,184.72287989000324,None,0,,,,,sub-sepehr,ses-control-stim-z-2,run-1,grey,2024-04-25_12h58.27.439,VDT,2023.2.3,None,2024-04-25 12h58.59.838183 +0200,
./images_beh/Sphere_CCW-1.5_BG-grey_stim-white.png,0,183,183,183,184.77171353902668,,,,,,,,,,184.7236002199934,184.78030067798682,184.78030067798682,185.52175425901078,185.52175425901078,185.75601638300577,None,0,,,,,sub-sepehr,ses-control-stim-z-2,run-1,grey,2024-04-25_12h58.27.439,VDT,2023.2.3,None,2024-04-25 12h58.59.838183 +0200,
./images_beh/Sphere_CW-1.5_BG-grey_stim-white.png,0,184,184,184,185.80644116800977,,,,,,,,,,185.75688964000437,185.80644116800977,185.80644116800977,186.52091527800076,186.55420754803345,186.74754536902765,None,0,,,,,sub-sepehr,ses-control-stim-z-2,run-1,grey,2024-04-25_12h58.27.439,VDT,2023.2.3,None,2024-04-25 12h58.59.838183 +0200,
./images_beh/Sphere_Ref_BG-grey_stim-yellow.png,0,185,185,185,186.7946548149921,,,,,,,,,,186.74889407202136,186.7946548149921,186.7946548149921,187.51975504501024,187.53574367403053,187.6966762910015,['space'],0,0.558729724958539,None,,,sub-sepehr,ses-control-stim-z-2,run-1,grey,2024-04-25_12h58.27.439,VDT,2023.2.3,None,2024-04-25 12h58.59.838183 +0200,
./images_beh/Sphere_CCW-1.5_BG-grey_stim-white.png,0,186,186,186,187.73906869802158,,,,,,,,,,187.6977899360354,187.76844121800968,187.76844121800968,188.51953565800795,188.51953565800795,188.72145640203962,None,0,,,,,sub-sepehr,ses-control-stim-z-2,run-1,grey,2024-04-25_12h58.27.439,VDT,2023.2.3,None,2024-04-25 12h58.59.838183 +0200,
./images_beh/Sphere_CW-1.5_BG-grey_stim-white.png,0,187,187,187,188.76906892599072,,,,,,,,,,188.72219315700931,188.77868581499206,188.77868581499206,189.5185111130122,189.5185111130122,189.7297881009872,None,0,,,,,sub-sepehr,ses-control-stim-z-2,run-1,grey,2024-04-25_12h58.27.439,VDT,2023.2.3,None,2024-04-25 12h58.59.838183 +0200,
./images_beh/Sphere_CW-1.5_BG-grey_stim-yellow.png,0,188,188,188,189.776757456013,,,,,,,,,,189.7306354920147,189.776757456013,189.776757456013,190.51764176302822,190.51764176302822,190.75253419700311,['space'],0,0.5694881830131635,None,,,sub-sepehr,ses-control-stim-z-2,run-1,grey,2024-04-25_12h58.27.439,VDT,2023.2.3,None,2024-04-25 12h58.59.838183 +0200,
./images_beh/Sphere_CCW-1.5_BG-grey_stim-white.png,0,189,189,189,190.79807702300604,,,,,,,,,,190.7533192629926,190.79807702300604,190.79807702300604,191.51945307501592,191.54410389403347,191.81235425401246,None,0,,,191.79456076101633,191.76132275699638,sub-sepehr,ses-control-stim-z-2,run-1,grey,2024-04-25_12h58.27.439,VDT,2023.2.3,None,2024-04-25 12h58.59.838183 +0200,
./images_beh/Sphere_Ref_BG-grey_stim-white.png,0,190,190,190,191.86125816503773,,,,,,,,,,191.8131034860271,191.86125816503773,191.86125816503773,192.5182101909886,192.60056415601866,192.7108909600065,None,0,,,,,sub-sepehr,ses-control-stim-z-2,run-1,grey,2024-04-25_12h58.27.439,VDT,2023.2.3,None,2024-04-25 12h58.59.838183 +0200,
./images_beh/Sphere_CCW-1.5_BG-grey_stim-yellow.png,0,191,191,191,192.75390136998612,,,,,,,,,,192.71189889503876,192.76629545603646,192.76629545603646,193.5163158790092,193.50988988700556,193.71722066303482,['space'],0,0.5787653350271285,None,,,sub-sepehr,ses-control-stim-z-2,run-1,grey,2024-04-25_12h58.27.439,VDT,2023.2.3,None,2024-04-25 12h58.59.838183 +0200,
./images_beh/Sphere_CW-1.5_BG-grey_stim-white.png,0,192,192,192,193.76038063602755,,,,,,,,,,193.71804693102604,193.77643297001487,193.77643297001487,194.5171994260163,194.5171994260163,194.72701436298667,None,0,,,,,sub-sepehr,ses-control-stim-z-2,run-1,grey,2024-04-25_12h58.27.439,VDT,2023.2.3,None,2024-04-25 12h58.59.838183 +0200,
./images_beh/Sphere_CCW-1.5_BG-grey_stim-white.png,0,193,193,193,194.76909512100974,,,,,,,,,,194.72779301804258,194.7758253890206,194.7758253890206,195.5259054870112,195.51493524800753,195.751332757005,None,0,,,,,sub-sepehr,ses-control-stim-z-2,run-1,grey,2024-04-25_12h58.27.439,VDT,2023.2.3,None,2024-04-25 12h58.59.838183 +0200,
./images_beh/Sphere_CW-1.5_BG-grey_stim-white.png,0,194,194,194,195.79989672102965,,,,,,,,,,195.75206109002465,195.79989672102965,195.79989672102965,196.52514727803646,196.54198749701027,196.74861302098725,None,0,,,,,sub-sepehr,ses-control-stim-z-2,run-1,grey,2024-04-25_12h58.27.439,VDT,2023.2.3,None,2024-04-25 12h58.59.838183 +0200,
./images_beh/Sphere_Ref_BG-grey_stim-yellow.png,0,195,195,195,196.79346906900173,,,,,,,,,,196.74925695499405,196.79346906900173,196.79346906900173,197.5245551110129,197.5434634719859,197.7422379910131,['space'],0,0.4875782940071076,None,,,sub-sepehr,ses-control-stim-z-2,run-1,grey,2024-04-25_12h58.27.439,VDT,2023.2.3,None,2024-04-25 12h58.59.838183 +0200,
./images_beh/Sphere_CW-1.5_BG-grey_stim-white.png,0,196,196,196,197.7861520019942,,,,,,,,,,197.7431224390166,197.7861520019942,197.7861520019942,198.52392517402768,198.53021711303154,198.7312816370395,None,0,,,,,sub-sepehr,ses-control-stim-z-2,run-1,grey,2024-04-25_12h58.27.439,VDT,2023.2.3,None,2024-04-25 12h58.59.838183 +0200,
./images_beh/Sphere_Ref_BG-grey_stim-white.png,0,197,197,197,198.778189417033,,,,,,,,,,198.7321962119895,198.778189417033,198.778189417033,199.52373162499862,199.52373162499862,199.74104700202588,None,0,,,,,sub-sepehr,ses-control-stim-z-2,run-1,grey,2024-04-25_12h58.27.439,VDT,2023.2.3,None,2024-04-25 12h58.59.838183 +0200,
./images_beh/Sphere_CCW-1.5_BG-grey_stim-white.png,0,198,198,198,199.78838728700066,,,,,,,,,,199.74214366800152,199.78838728700066,199.78838728700066,200.53098569903523,200.53098569903523,200.70705909200478,None,0,,,,,sub-sepehr,ses-control-stim-z-2,run-1,grey,2024-04-25_12h58.27.439,VDT,2023.2.3,None,2024-04-25 12h58.59.838183 +0200,
./images_beh/Sphere_CCW-1.5_BG-grey_stim-white.png,0,199,199,199,200.75365114799934,,,,,,,,,,200.70811417000368,200.7788417180418,200.7788417180418,201.52277951303404,201.52277951303404,201.74052285199286,None,0,,,,,sub-sepehr,ses-control-stim-z-2,run-1,grey,2024-04-25_12h58.27.439,VDT,2023.2.3,None,2024-04-25 12h58.59.838183 +0200,
./images_beh/Sphere_CW-1.5_BG-grey_stim-yellow.png,0,200,200,200,201.79093656799523,,,,,,,,,,201.74136601702776,201.79093656799523,201.79093656799523,202.5245065590134,202.53877235000255,202.72926869400544,['space'],0,0.46633406000910327,None,,,sub-sepehr,ses-control-stim-z-2,run-1,grey,2024-04-25_12h58.27.439,VDT,2023.2.3,None,2024-04-25 12h58.59.838183 +0200,
./images_beh/Sphere_CW-1.5_BG-grey_stim-white.png,0,201,201,201,202.77637448400492,,,,,,,,,,202.73148764204234,202.77637448400492,202.77637448400492,203.52184796502115,203.52184796502115,203.7614888290409,None,0,,,,203.76049874600722,sub-sepehr,ses-control-stim-z-2,run-1,grey,2024-04-25_12h58.27.439,VDT,2023.2.3,None,2024-04-25 12h58.59.838183 +0200,
./images_beh/Sphere_CCW-1.5_BG-grey_stim-white.png,0,202,202,202,203.81061598099768,,,,,,,,,,203.76220321300207,203.81061598099768,203.81061598099768,204.52084609901067,204.55413101200247,204.72852385701844,None,0,,,,,sub-sepehr,ses-control-stim-z-2,run-1,grey,2024-04-25_12h58.27.439,VDT,2023.2.3,None,2024-04-25 12h58.59.838183 +0200,
./images_beh/Sphere_Ref_BG-grey_stim-yellow.png,0,203,203,203,204.77725876600016,,,,,,,,,,204.7292365640169,204.77725876600016,204.77725876600016,205.5203806470381,205.5203806470381,205.73829894000664,['space'],0,0.48677065898664296,None,,,sub-sepehr,ses-control-stim-z-2,run-1,grey,2024-04-25_12h58.27.439,VDT,2023.2.3,None,2024-04-25 12h58.59.838183 +0200,
./images_beh/Sphere_CW-1.5_BG-grey_stim-white.png,0,204,204,204,205.78876884200145,,,,,,,,,,205.73972248501377,205.78876884200145,205.78876884200145,206.5202345100115,206.536896531994,206.77108406403568,None,0,,,,206.75858801003778,sub-sepehr,ses-control-stim-z-2,run-1,grey,2024-04-25_12h58.27.439,VDT,2023.2.3,None,2024-04-25 12h58.59.838183 +0200,
./images_beh/Sphere_CW-1.5_BG-grey_stim-white.png,0,205,205,205,206.8160002710065,,,,,,,,,,206.77180831099395,206.8160002710065,206.8160002710065,207.52693436003756,207.55899008602137,207.720648240007,None,0,,,,,sub-sepehr,ses-control-stim-z-2,run-1,grey,2024-04-25_12h58.27.439,VDT,2023.2.3,None,2024-04-25 12h58.59.838183 +0200,
./images_beh/Sphere_CW-1.5_BG-grey_stim-white.png,0,206,206,206,207.76880927098682,,,,,,,,,,207.72149264300242,207.77415960503276,207.77415960503276,208.52546052401885,208.51875248999568,208.7194706540322,None,0,,,,,sub-sepehr,ses-control-stim-z-2,run-1,grey,2024-04-25_12h58.27.439,VDT,2023.2.3,None,2024-04-25 12h58.59.838183 +0200,
./images_beh/Sphere_Ref_BG-grey_stim-white.png,0,207,207,207,208.76373550703283,,,,,,,,,,208.72059643099783,208.76850216300227,208.76850216300227,209.52519335102988,209.50749469501898,209.7090194610064,None,0,,,,,sub-sepehr,ses-control-stim-z-2,run-1,grey,2024-04-25_12h58.27.439,VDT,2023.2.3,None,2024-04-25 12h58.59.838183 +0200,
./images_beh/Sphere_Ref_BG-grey_stim-yellow.png,0,208,208,208,209.75258713203948,,,,,,,,,,209.70970042602858,209.77359085303033,209.77359085303033,210.5237431320129,210.51772217801772,210.7188343720045,['space'],0,0.5067775440402329,None,,,sub-sepehr,ses-control-stim-z-2,run-1,grey,2024-04-25_12h58.27.439,VDT,2023.2.3,None,2024-04-25 12h58.59.838183 +0200,
./images_beh/Sphere_CW-1.5_BG-grey_stim-white.png,0,209,209,209,210.7648501030053,,,,,,,,,,210.72015754401218,210.78416802198626,210.78416802198626,211.5235570280347,211.5235570280347,211.75093971804017,None,0,,,,,sub-sepehr,ses-control-stim-z-2,run-1,grey,2024-04-25_12h58.27.439,VDT,2023.2.3,None,2024-04-25 12h58.59.838183 +0200,
./images_beh/Sphere_CCW-1.5_BG-grey_stim-white.png,0,210,210,210,211.78394345502602,,,,,,,,,,211.75170832901495,211.78394345502602,211.78394345502602,212.52198383002542,212.52198383002542,212.7554086560267,None,0,,,,,sub-sepehr,ses-control-stim-z-2,run-1,grey,2024-04-25_12h58.27.439,VDT,2023.2.3,None,2024-04-25 12h58.59.838183 +0200,
./images_beh/Sphere_CCW-1.5_BG-grey_stim-white.png,0,211,211,211,212.79081464902265,,,,,,,,,,212.75573943700874,212.79081464902265,212.79081464902265,213.52241381799104,213.53784053202253,213.7170018890174,None,0,,,,,sub-sepehr,ses-control-stim-z-2,run-1,grey,2024-04-25_12h58.27.439,VDT,2023.2.3,None,2024-04-25 12h58.59.838183 +0200,
./images_beh/Sphere_CCW-1.5_BG-grey_stim-yellow.png,0,212,212,212,213.75021636899328,,,,,,,,,,213.71752860501874,213.77086627000244,213.77086627000244,214.5210757930181,214.51564571104245,214.7221041090088,['space'],0,0.476995375007391,None,,,sub-sepehr,ses-control-stim-z-2,run-1,grey,2024-04-25_12h58.27.439,VDT,2023.2.3,None,2024-04-25 12h58.59.838183 +0200,
./images_beh/Sphere_CCW-1.5_BG-grey_stim-white.png,0,213,213,213,214.76324498903705,,,,,,,,,,214.7230195160373,214.76770076103276,214.76770076103276,215.52122531703208,215.51514184003463,215.7320101460209,None,0,,,,,sub-sepehr,ses-control-stim-z-2,run-1,grey,2024-04-25_12h58.27.439,VDT,2023.2.3,None,2024-04-25 12h58.59.838183 +0200,
./images_beh/Sphere_Ref_BG-grey_stim-white.png,0,214,214,214,215.7869768620003,,,,,,,,,,215.7326980230282,215.7869768620003,215.7869768620003,216.5217880299897,216.53138693602523,216.7370565130259,None,0,,,,,sub-sepehr,ses-control-stim-z-2,run-1,grey,2024-04-25_12h58.27.439,VDT,2023.2.3,None,2024-04-25 12h58.59.838183 +0200,
./images_beh/Sphere_CW-1.5_BG-grey_stim-white.png,0,215,215,215,216.77878265199251,,,,,,,,,,216.7373719260213,216.77878265199251,216.77878265199251,217.52157655003248,217.52157655003248,217.68236156803323,None,0,,,,,sub-sepehr,ses-control-stim-z-2,run-1,grey,2024-04-25_12h58.27.439,VDT,2023.2.3,None,2024-04-25 12h58.59.838183 +0200,
./images_beh/Sphere_CW-1.5_BG-grey_stim-white.png,0,216,216,216,217.72695582703454,,,,,,,,,,217.68316500203218,217.77044136403129,217.77044136403129,218.5203081460204,218.51379591500154,218.72104893403593,None,0,,,,,sub-sepehr,ses-control-stim-z-2,run-1,grey,2024-04-25_12h58.27.439,VDT,2023.2.3,None,2024-04-25 12h58.59.838183 +0200,
./images_beh/Sphere_CCW-1.5_BG-grey_stim-white.png,0,217,217,217,218.76386311498936,,,,,,,,,,218.72164150699973,218.76924846402835,218.76924846402835,219.52083144302014,219.51351708499715,219.7544384879875,None,0,,,,,sub-sepehr,ses-control-stim-z-2,run-1,grey,2024-04-25_12h58.27.439,VDT,2023.2.3,None,2024-04-25 12h58.59.838183 +0200,
./images_beh/Sphere_Ref_BG-grey_stim-white.png,0,218,218,218,219.8033476730343,,,,,,,,,,219.75517360499362,219.8033476730343,219.8033476730343,220.52087112300796,220.54631824203534,220.6971380719915,None,0,,,,,sub-sepehr,ses-control-stim-z-2,run-1,grey,2024-04-25_12h58.27.439,VDT,2023.2.3,None,2024-04-25 12h58.59.838183 +0200,
./images_beh/Sphere_Ref_BG-grey_stim-yellow.png,0,219,219,219,220.7432127110078,,,,,,,,,,220.69821467000293,220.76854902302148,220.76854902302148,221.5186408929876,221.51252986904,221.72042391001014,['space'],0,0.5526728269760497,None,,,sub-sepehr,ses-control-stim-z-2,run-1,grey,2024-04-25_12h58.27.439,VDT,2023.2.3,None,2024-04-25 12h58.59.838183 +0200,
./images_beh/Sphere_CCW-1.5_BG-grey_stim-white.png,0,220,220,220,221.76548094302416,,,,,,,,,,221.72136019199388,221.77857348503312,221.77857348503312,222.5195305630332,222.5195305630332,222.78202426800271,None,0,,,222.7812516129925,222.765411297034,sub-sepehr,ses-control-stim-z-2,run-1,grey,2024-04-25_12h58.27.439,VDT,2023.2.3,None,2024-04-25 12h58.59.838183 +0200,
./images_beh/Sphere_CCW-1.5_BG-grey_stim-white.png,0,221,221,221,222.8327354050125,,,,,,,,,,222.7827500179992,222.8327354050125,222.8327354050125,223.52014847804094,223.57786872802535,223.7464810810052,None,0,,,,,sub-sepehr,ses-control-stim-z-2,run-1,grey,2024-04-25_12h58.27.439,VDT,2023.2.3,None,2024-04-25 12h58.59.838183 +0200,
./images_beh/Sphere_CCW-1.5_BG-grey_stim-yellow.png,0,222,222,222,223.79593926802045,,,,,,,,,,223.7472665430396,223.79593926802045,223.79593926802045,224.51895358302863,224.54396816302324,224.7284917809884,['space'],0,0.5087001100182533,None,,,sub-sepehr,ses-control-stim-z-2,run-1,grey,2024-04-25_12h58.27.439,VDT,2023.2.3,None,2024-04-25 12h58.59.838183 +0200,
./images_beh/Sphere_CW-1.5_BG-grey_stim-white.png,0,223,223,223,224.7743287649937,,,,,,,,,,224.72966998099582,224.7743287649937,224.7743287649937,225.51799599302467,225.51799599302467,225.7281659480068,None,0,,,,,sub-sepehr,ses-control-stim-z-2,run-1,grey,2024-04-25_12h58.27.439,VDT,2023.2.3,None,2024-04-25 12h58.59.838183 +0200,
./images_beh/Sphere_CCW-1.5_BG-grey_stim-white.png,0,224,224,224,225.77560460398672,,,,,,,,,,225.72895017301198,225.77560460398672,225.77560460398672,226.5186528910417,226.5186528910417,226.7276348400046,None,0,,,,,sub-sepehr,ses-control-stim-z-2,run-1,grey,2024-04-25_12h58.27.439,VDT,2023.2.3,None,2024-04-25 12h58.59.838183 +0200,
./images_beh/Sphere_Ref_BG-grey_stim-white.png,0,225,225,225,226.77606592100346,,,,,,,,,,226.72842917003436,226.77606592100346,226.77606592100346,227.52619721199153,227.51465256803203,227.74681958998553,None,0,,,,,sub-sepehr,ses-control-stim-z-2,run-1,grey,2024-04-25_12h58.27.439,VDT,2023.2.3,None,2024-04-25 12h58.59.838183 +0200,
./images_beh/Sphere_CW-1.5_BG-grey_stim-white.png,0,226,226,226,227.79562720202375,,,,,,,,,,227.74810356803937,227.79562720202375,227.79562720202375,228.5258211310138,228.54221504798625,228.70083885098575,None,0,,,,,sub-sepehr,ses-control-stim-z-2,run-1,grey,2024-04-25_12h58.27.439,VDT,2023.2.3,None,2024-04-25 12h58.59.838183 +0200,
./images_beh/Sphere_CW-1.5_BG-grey_stim-white.png,0,227,227,227,228.74612025398528,,,,,,,,,,228.70155802404042,228.77546401700238,228.77546401700238,229.5254751960165,229.5149414599873,229.69283372198697,None,0,,,,,sub-sepehr,ses-control-stim-z-2,run-1,grey,2024-04-25_12h58.27.439,VDT,2023.2.3,None,2024-04-25 12h58.59.838183 +0200,
./images_beh/Sphere_CW-1.5_BG-grey_stim-yellow.png,0,228,228,228,229.74051429098472,,,,,,,,,,229.69388390803942,229.77504702599254,229.77504702599254,230.52463571703993,230.51322616101243,230.7492826069938,['space'],0,0.5536311150062829,None,,,sub-sepehr,ses-control-stim-z-2,run-1,grey,2024-04-25_12h58.27.439,VDT,2023.2.3,None,2024-04-25 12h58.59.838183 +0200,
./images_beh/Sphere_CW-1.5_BG-grey_stim-white.png,0,229,229,229,230.79612733400427,,,,,,,,,,230.750223784009,230.79612733400427,230.79612733400427,231.52408977301093,231.5406611530343,231.73084063798888,None,0,,,,,sub-sepehr,ses-control-stim-z-2,run-1,grey,2024-04-25_12h58.27.439,VDT,2023.2.3,None,2024-04-25 12h58.59.838183 +0200,
./images_beh/Sphere_CW-1.5_BG-grey_stim-white.png,0,230,230,230,231.77548756002216,,,,,,,,,,231.73159030202078,231.77548756002216,231.77548756002216,232.52361429098528,232.52361429098528,232.76485406199936,None,0,,,,232.76382811903022,sub-sepehr,ses-control-stim-z-2,run-1,grey,2024-04-25_12h58.27.439,VDT,2023.2.3,None,2024-04-25 12h58.59.838183 +0200,
./images_beh/Sphere_Ref_BG-grey_stim-yellow.png,0,231,231,231,232.81121668004198,,,,,,,,,,232.765573376033,232.81121668004198,232.81121668004198,233.52334993699333,233.55619844800094,233.690245764039,['space'],0,0.6224003410316072,None,,,sub-sepehr,ses-control-stim-z-2,run-1,grey,2024-04-25_12h58.27.439,VDT,2023.2.3,None,2024-04-25 12h58.59.838183 +0200,
./images_beh/Sphere_CCW-1.5_BG-grey_stim-white.png,0,232,232,232,233.73460928199347,,,,,,,,,,233.69128977501532,233.77280875999713,233.77280875999713,234.5250240250025,234.51129747001687,234.72576603101334,None,0,,,,,sub-sepehr,ses-control-stim-z-2,run-1,grey,2024-04-25_12h58.27.439,VDT,2023.2.3,None,2024-04-25 12h58.59.838183 +0200,
./images_beh/Sphere_CCW-1.5_BG-grey_stim-white.png,0,233,233,233,234.77250322303735,,,,,,,,,,234.72652338002808,234.77863562502898,234.77863562502898,235.521937788988,235.521937788988,235.76147057203343,None,0,,,,235.76076537702465,sub-sepehr,ses-control-stim-z-2,run-1,grey,2024-04-25_12h58.27.439,VDT,2023.2.3,None,2024-04-25 12h58.59.838183 +0200,
./images_beh/Sphere_Ref_BG-grey_stim-white.png,0,234,234,234,235.80676067702007,,,,,,,,,,235.76205101399682,235.80676067702007,235.80676067702007,236.5216731959954,236.5546688089962,236.7389468710171,None,0,,,,,sub-sepehr,ses-control-stim-z-2,run-1,grey,2024-04-25_12h58.27.439,VDT,2023.2.3,None,2024-04-25 12h58.59.838183 +0200,
./images_beh/Sphere_CCW-1.5_BG-grey_stim-white.png,0,235,235,235,236.7829958340153,,,,,,,,,,236.7395849720342,236.7829958340153,236.7829958340153,237.5210166850011,237.52825456403662,237.75483166304184,None,0,,,,,sub-sepehr,ses-control-stim-z-2,run-1,grey,2024-04-25_12h58.27.439,VDT,2023.2.3,None,2024-04-25 12h58.59.838183 +0200,
./images_beh/Sphere_Ref_BG-grey_stim-yellow.png,0,236,236,236,237.8033929480007,,,,,,,,,,237.7561546100187,237.8033929480007,237.8033929480007,238.52020936802728,238.5433314749971,238.77120870898943,['space'],0,0.5737357069738209,None,,238.75915720302146,sub-sepehr,ses-control-stim-z-2,run-1,grey,2024-04-25_12h58.27.439,VDT,2023.2.3,None,2024-04-25 12h58.59.838183 +0200,
./images_beh/Sphere_CCW-1.5_BG-grey_stim-white.png,0,237,237,237,238.8193318870035,,,,,,,,,,238.77241634798702,238.8193318870035,238.8193318870035,239.51942036004039,239.55905650998466,239.72700628399616,None,0,,,,,sub-sepehr,ses-control-stim-z-2,run-1,grey,2024-04-25_12h58.27.439,VDT,2023.2.3,None,2024-04-25 12h58.59.838183 +0200,
./images_beh/Sphere_CCW-1.5_BG-grey_stim-white.png,0,238,238,238,239.7708011160139,,,,,,,,,,239.72775908303447,239.78600871301023,239.78600871301023,240.52679925400298,240.52679925400298,240.7265990410233,None,0,,,,,sub-sepehr,ses-control-stim-z-2,run-1,grey,2024-04-25_12h58.27.439,VDT,2023.2.3,None,2024-04-25 12h58.59.838183 +0200,
./images_beh/Sphere_CW-1.5_BG-grey_stim-white.png,0,239,239,239,240.7737214170047,,,,,,,,,,240.7273261169903,240.7855007200269,240.7855007200269,241.52561823202996,241.52561823202996,241.71985635202145,None,0,,,,,sub-sepehr,ses-control-stim-z-2,run-1,grey,2024-04-25_12h58.27.439,VDT,2023.2.3,None,2024-04-25 12h58.59.838183 +0200,
./images_beh/Sphere_Ref_BG-grey_stim-yellow.png,0,240,240,240,241.76518551498884,,,,,,,,,,241.72077179903863,241.7851725370274,241.7851725370274,242.524684714037,242.524684714037,242.7028369079926,['space'],0,0.40767661202698946,None,,,sub-sepehr,ses-control-stim-z-2,run-1,grey,2024-04-25_12h58.27.439,VDT,2023.2.3,None,2024-04-25 12h58.59.838183 +0200,
./images_beh/Sphere_CCW-1.5_BG-grey_stim-white.png,0,241,241,241,242.74981916800607,,,,,,,,,,242.70405810099328,242.77337627502857,242.77337627502857,243.52529613103252,243.51781087100971,243.71807926602196,None,0,,,,,sub-sepehr,ses-control-stim-z-2,run-1,grey,2024-04-25_12h58.27.439,VDT,2023.2.3,None,2024-04-25 12h58.59.838183 +0200,
./images_beh/Sphere_CCW-1.5_BG-grey_stim-white.png,0,242,242,242,243.76045359502314,,,,,,,,,,243.7190342770191,243.76722449500812,243.76722449500812,244.52443142200354,244.5061381360283,244.75134385802085,None,0,,,,,sub-sepehr,ses-control-stim-z-2,run-1,grey,2024-04-25_12h58.27.439,VDT,2023.2.3,None,2024-04-25 12h58.59.838183 +0200,
./images_beh/Sphere_CW-1.5_BG-grey_stim-yellow.png,0,243,243,243,244.7965171530377,,,,,,,,,,244.75252458202885,244.7965171530377,244.7965171530377,245.52368612401187,245.5393871330307,245.7175146380323,['space'],0,0.5244583380408585,None,,,sub-sepehr,ses-control-stim-z-2,run-1,grey,2024-04-25_12h58.27.439,VDT,2023.2.3,None,2024-04-25 12h58.59.838183 +0200,
./images_beh/Sphere_CCW-1.5_BG-grey_stim-white.png,0,244,244,244,245.76289829902817,,,,,,,,,,245.71893730398733,245.76775276300032,245.76775276300032,246.52194966201205,246.5161138260155,246.7074501439929,None,0,,,,,sub-sepehr,ses-control-stim-z-2,run-1,grey,2024-04-25_12h58.27.439,VDT,2023.2.3,None,2024-04-25 12h58.59.838183 +0200,
./images_beh/Sphere_CW-1.5_BG-grey_stim-white.png,0,245,245,245,246.7543151419959,,,,,,,,,,246.70816468802514,246.77127099898644,246.77127099898644,247.5218403720064,247.51567943801638,247.73688554600812,None,0,,,,,sub-sepehr,ses-control-stim-z-2,run-1,grey,2024-04-25_12h58.27.439,VDT,2023.2.3,None,2024-04-25 12h58.59.838183 +0200,
./images_beh/Sphere_CW-1.5_BG-grey_stim-white.png,0,246,246,246,247.785866981023,,,,,,,,,,247.73761987802573,247.785866981023,247.785866981023,248.53464696003357,248.53464696003357,248.73362009203993,None,0,,,,,sub-sepehr,ses-control-stim-z-2,run-1,grey,2024-04-25_12h58.27.439,VDT,2023.2.3,None,2024-04-25 12h58.59.838183 +0200,
./images_beh/Sphere_CW-1.5_BG-grey_stim-white.png,0,247,247,247,248.78192807501182,,,,,,,,,,248.73438405798515,248.78192807501182,248.78192807501182,249.5318623370258,249.5318623370258,249.78352730599,None,0,,,249.7820934309857,249.7820934309857,sub-sepehr,ses-control-stim-z-2,run-1,grey,2024-04-25_12h58.27.439,VDT,2023.2.3,None,2024-04-25 12h58.59.838183 +0200,
./images_beh/Sphere_CCW-1.5_BG-grey_stim-yellow.png,0,248,248,248,249.8315055090352,,,,,,,,,,249.78428413602524,249.8315055090352,249.8315055090352,250.52192541700788,250.57137968100142,250.7323514270247,['space'],0,0.5137863410054706,None,,,sub-sepehr,ses-control-stim-z-2,run-1,grey,2024-04-25_12h58.27.439,VDT,2023.2.3,None,2024-04-25 12h58.59.838183 +0200,
./images_beh/Sphere_Ref_BG-grey_stim-white.png,0,249,249,249,250.77928357198834,,,,,,,,,,250.73341253201943,250.77928357198834,250.77928357198834,251.52149915503105,251.52149915503105,251.69825323403347,None,0,,,,,sub-sepehr,ses-control-stim-z-2,run-1,grey,2024-04-25_12h58.27.439,VDT,2023.2.3,None,2024-04-25 12h58.59.838183 +0200,
./images_beh/Sphere_CW-1.5_BG-grey_stim-white.png,0,250,250,250,251.74603865499375,,,,,,,,,,251.69955772801768,251.7691183600109,251.7691183600109,252.52011984802084,252.5135100359912,252.714692345995,None,0,,,,,sub-sepehr,ses-control-stim-z-2,run-1,grey,2024-04-25_12h58.27.439,VDT,2023.2.3,None,2024-04-25 12h58.59.838183 +0200,
./images_beh/Sphere_CW-1.5_BG-grey_stim-white.png,0,251,251,251,252.762954247999,,,,,,,,,,252.71567492600298,252.76894492498832,252.76894492498832,253.52009047399042,253.51283043203875,253.69699608901283,None,0,,,,,sub-sepehr,ses-control-stim-z-2,run-1,grey,2024-04-25_12h58.27.439,VDT,2023.2.3,None,2024-04-25 12h58.59.838183 +0200,
./images_beh/Sphere_CCW-1.5_BG-grey_stim-white.png,0,252,252,252,253.7435039090342,,,,,,,,,,253.6982649799902,253.7692499930272,253.7692499930272,254.51962654001545,254.51231195300352,254.76366273901658,None,0,,,254.7623979120399,254.7623979120399,sub-sepehr,ses-control-stim-z-2,run-1,grey,2024-04-25_12h58.27.439,VDT,2023.2.3,None,2024-04-25 12h58.59.838183 +0200,
./images_beh/Sphere_Ref_BG-grey_stim-white.png,0,253,253,253,254.81268119398737,,,,,,,,,,254.76476722001098,254.81268119398737,254.81268119398737,255.5194377800217,255.5619171790313,255.7202105380129,None,0,,,,,sub-sepehr,ses-control-stim-z-2,run-1,grey,2024-04-25_12h58.27.439,VDT,2023.2.3,None,2024-04-25 12h58.59.838183 +0200,
./images_beh/Sphere_CW-1.5_BG-grey_stim-yellow.png,0,254,254,254,255.77058601303725,,,,,,,,,,255.72121275699465,255.77792783203768,255.77792783203768,256.518934325024,256.518934325024,256.77965709299315,['space'],0,0.48649959603790194,None,256.77854795602616,256.77854795602616,sub-sepehr,ses-control-stim-z-2,run-1,grey,2024-04-25_12h58.27.439,VDT,2023.2.3,None,2024-04-25 12h58.59.838183 +0200,
./images_beh/Sphere_Ref_BG-grey_stim-white.png,0,255,255,255,256.82850295701064,,,,,,,,,,256.78087231202517,256.82850295701064,256.82850295701064,257.51824679604033,257.5773594910279,257.70126338500995,None,0,,,,,sub-sepehr,ses-control-stim-z-2,run-1,grey,2024-04-25_12h58.27.439,VDT,2023.2.3,None,2024-04-25 12h58.59.838183 +0200,
./images_beh/Sphere_CW-1.5_BG-grey_stim-white.png,0,256,256,256,257.7458333700197,,,,,,,,,,257.70183904701844,257.76539035199676,257.76539035199676,258.5167830490391,258.5167830490391,258.71729014103767,None,0,,,,,sub-sepehr,ses-control-stim-z-2,run-1,grey,2024-04-25_12h58.27.439,VDT,2023.2.3,None,2024-04-25 12h58.59.838183 +0200,
./images_beh/Sphere_CCW-1.5_BG-grey_stim-white.png,0,257,257,257,258.76091480703326,,,,,,,,,,258.7178602940403,258.77663737599505,258.77663737599505,259.516959029017,259.516959029017,259.77790148201166,None,0,,,259.76572697999654,259.76572697999654,sub-sepehr,ses-control-stim-z-2,run-1,grey,2024-04-25_12h58.27.439,VDT,2023.2.3,None,2024-04-25 12h58.59.838183 +0200,
./images_beh/Sphere_CW-1.5_BG-grey_stim-white.png,0,258,258,258,259.8265311460127,,,,,,,,,,259.7786578570376,259.8265311460127,259.8265311460127,260.5258068300318,260.56651591300033,260.77691178402165,None,0,,,,260.7638355550007,sub-sepehr,ses-control-stim-z-2,run-1,grey,2024-04-25_12h58.27.439,VDT,2023.2.3,None,2024-04-25 12h58.59.838183 +0200,
./images_beh/Sphere_CCW-1.5_BG-grey_stim-yellow.png,0,259,259,259,260.823576963041,,,,,,,,,,260.7779784849845,260.823576963041,260.823576963041,261.5253165549948,261.56447485502576,261.73236905701924,['space'],0,0.5054539740085602,None,,,sub-sepehr,ses-control-stim-z-2,run-1,grey,2024-04-25_12h58.27.439,VDT,2023.2.3,None,2024-04-25 12h58.59.838183 +0200,
./images_beh/Sphere_CW-1.5_BG-grey_stim-white.png,0,260,260,260,261.77562477299944,,,,,,,,,,261.7331546919886,261.77562477299944,261.77562477299944,262.52484323701356,262.51482198701706,262.7264700300293,None,0,,,,,sub-sepehr,ses-control-stim-z-2,run-1,grey,2024-04-25_12h58.27.439,VDT,2023.2.3,None,2024-04-25 12h58.59.838183 +0200,
./images_beh/Sphere_CCW-1.5_BG-grey_stim-white.png,0,261,261,261,262.7721335430397,,,,,,,,,,262.72722911601886,262.7781993850367,262.7781993850367,263.52442846703343,263.52442846703343,263.7449303740286,None,0,,,,,sub-sepehr,ses-control-stim-z-2,run-1,grey,2024-04-25_12h58.27.439,VDT,2023.2.3,None,2024-04-25 12h58.59.838183 +0200,
./images_beh/Sphere_CCW-1.5_BG-grey_stim-white.png,0,262,262,262,263.79243696003687,,,,,,,,,,263.74566060700454,263.79243696003687,263.79243696003687,264.5271402510116,264.54322822298855,264.7473991170409,None,0,,,,,sub-sepehr,ses-control-stim-z-2,run-1,grey,2024-04-25_12h58.27.439,VDT,2023.2.3,None,2024-04-25 12h58.59.838183 +0200,
./images_beh/Sphere_Ref_BG-grey_stim-yellow.png,0,263,263,263,264.79239467100706,,,,,,,,,,264.74825286399573,264.79239467100706,264.79239467100706,265.532005614019,265.5396276669926,265.70988188002957,['space'],0,0.521067206049338,None,,,sub-sepehr,ses-control-stim-z-2,run-1,grey,2024-04-25_12h58.27.439,VDT,2023.2.3,None,2024-04-25 12h58.59.838183 +0200,
./images_beh/Sphere_CW-1.5_BG-grey_stim-white.png,0,264,264,264,265.7563760250341,,,,,,,,,,265.7108447650098,265.7728600690025,265.7728600690025,266.52558258303907,266.5121443470125,266.76333748799516,None,0,,,266.76259590900736,,sub-sepehr,ses-control-stim-z-2,run-1,grey,2024-04-25_12h58.27.439,VDT,2023.2.3,None,2024-04-25 12h58.59.838183 +0200,
./images_beh/Sphere_CW-1.5_BG-grey_stim-white.png,0,265,265,265,266.8125486809877,,,,,,,,,,266.7643354310421,266.8125486809877,266.8125486809877,267.52247029799037,267.55539851699723,267.72959918901324,None,0,,,,,sub-sepehr,ses-control-stim-z-2,run-1,grey,2024-04-25_12h58.27.439,VDT,2023.2.3,None,2024-04-25 12h58.59.838183 +0200,
./images_beh/Sphere_CCW-1.5_BG-grey_stim-white.png,0,266,266,266,267.77468679798767,,,,,,,,,,267.73018610902363,267.77468679798767,267.77468679798767,268.5215356150293,268.5215356150293,268.70888431504136,None,0,,,,,sub-sepehr,ses-control-stim-z-2,run-1,grey,2024-04-25_12h58.27.439,VDT,2023.2.3,None,2024-04-25 12h58.59.838183 +0200,
./images_beh/Sphere_Ref_BG-grey_stim-yellow.png,0,267,267,267,268.7555814619991,,,,,,,,,,268.7096194709884,268.77765632700175,268.77765632700175,269.52121129998704,269.52737351402175,269.72468925098656,['space'],0,0.528845080989413,None,,,sub-sepehr,ses-control-stim-z-2,run-1,grey,2024-04-25_12h58.27.439,VDT,2023.2.3,None,2024-04-25 12h58.59.838183 +0200,
./images_beh/Sphere_CCW-1.5_BG-grey_stim-white.png,0,268,268,268,269.7716524450225,,,,,,,,,,269.7256437910255,269.77710728603415,269.77710728603415,270.5214947630302,270.5214947630302,270.74627261504065,None,0,,,,,sub-sepehr,ses-control-stim-z-2,run-1,grey,2024-04-25_12h58.27.439,VDT,2023.2.3,None,2024-04-25 12h58.59.838183 +0200,
./images_beh/Sphere_CW-1.5_BG-grey_stim-white.png,0,269,269,269,270.79646117502125,,,,,,,,,,270.7471128050238,270.79646117502125,270.79646117502125,271.5283571900218,271.543762338988,271.73825300403405,None,0,,,,,sub-sepehr,ses-control-stim-z-2,run-1,grey,2024-04-25_12h58.27.439,VDT,2023.2.3,None,2024-04-25 12h58.59.838183 +0200,
