image,trials.thisRepN,trials.thisTrialN,trials.thisN,trials.thisIndex,thisRow.t,notes,WaitingForScannerTrigger.started,Vertical.started,key_resp.started,WaitingForScannerTrigger.stopped,key_resp.keys,key_resp.corr,key_resp.rt,key_resp.duration,VDT.started,PresentedLine1.started,key_resp_2.started,FixDot2.started,PresentedLine1.stopped,VDT.stopped,key_resp_2.keys,key_resp_2.corr,key_resp_2.rt,key_resp_2.duration,FixDot2.stopped,key_resp_2.stopped,participant,session,run,BG_color,date,expName,psychopyVersion,frameRate,expStart,
,,,,,,,0.005036985035985708,0.010409509006422013,0.010409509006422013,3.4394507569959387,s,0,3.4195037589524873,None,,,,,,,,,,,,,sub-003,ses-main-base-l-1,run-1,grey,2024-04-25_13h57.35.495,VDT,2023.2.3,120.46514380750689,2024-04-25 13h57.57.655124 +0200,
./images_beh/Sphere_CW-1.5_BG-grey_stim-white.png,0,0,0,0,3.499402526009362,,,,,,,,,,3.4660937360022217,3.499402526009362,3.499402526009362,4.185112083039712,4.242152716033161,4.376475227996707,None,0,,,,,sub-003,ses-main-base-l-1,run-1,grey,2024-04-25_13h57.35.495,VDT,2023.2.3,120.46514380750689,2024-04-25 13h57.57.655124 +0200,
./images_beh/Sphere_CW-1.5_BG-grey_stim-white.png,0,1,1,1,4.425192468042951,,,,,,,,,,4.379442233010195,4.435004311031662,4.435004311031662,5.18492235802114,5.1738806900102645,5.392523335001897,None,0,,,,,sub-003,ses-main-base-l-1,run-1,grey,2024-04-25_13h57.35.495,VDT,2023.2.3,120.46514380750689,2024-04-25 13h57.57.655124 +0200,
./images_beh/Sphere_CCW-1.5_BG-grey_stim-white.png,0,2,2,2,5.445207837037742,,,,,,,,,,5.393220847006887,5.445207837037742,5.445207837037742,6.191215605998877,6.191215605998877,6.385321453039069,['space'],0,0.442067933967337,None,,,sub-003,ses-main-base-l-1,run-1,grey,2024-04-25_13h57.35.495,VDT,2023.2.3,120.46514380750689,2024-04-25 13h57.57.655124 +0200,
./images_beh/Sphere_CW-1.5_BG-grey_stim-white.png,0,3,3,3,6.4330828780075535,,,,,,,,,,6.38886425900273,6.438742797996383,6.438742797996383,7.183716778003145,7.183716778003145,7.375036646029912,None,0,,,,,sub-003,ses-main-base-l-1,run-1,grey,2024-04-25_13h57.35.495,VDT,2023.2.3,120.46514380750689,2024-04-25 13h57.57.655124 +0200,
./images_beh/Sphere_CCW-1.5_BG-grey_stim-white.png,0,4,4,4,7.423962511005811,,,,,,,,,,7.37591057800455,7.4339872730197385,7.4339872730197385,8.183307974017225,8.172203129041009,8.351112208038103,None,0,,,,,sub-003,ses-main-base-l-1,run-1,grey,2024-04-25_13h57.35.495,VDT,2023.2.3,120.46514380750689,2024-04-25 13h57.57.655124 +0200,
./images_beh/Sphere_Ref_BG-grey_stim-white.png,0,5,5,5,8.39958101900993,,,,,,,,,,8.35199073998956,8.43952780100517,8.43952780100517,9.188130365044344,9.188130365044344,9.383366846013814,['space'],0,0.545222532004118,None,,,sub-003,ses-main-base-l-1,run-1,grey,2024-04-25_13h57.35.495,VDT,2023.2.3,120.46514380750689,2024-04-25 13h57.57.655124 +0200,
./images_beh/Sphere_CCW-1.5_BG-grey_stim-white.png,0,6,6,6,9.430584440007806,,,,,,,,,,9.384693781030364,9.436014340026304,9.436014340026304,10.18206799600739,10.18206799600739,10.35024074499961,None,0,,,,,sub-003,ses-main-base-l-1,run-1,grey,2024-04-25_13h57.35.495,VDT,2023.2.3,120.46514380750689,2024-04-25 13h57.57.655124 +0200,
./images_beh/Sphere_CW-1.5_BG-grey_stim-white.png,0,7,7,7,10.401356210000813,,,,,,,,,,10.351731622999068,10.439397387031931,10.439397387031931,11.188236290996429,11.188236290996429,11.399851082009263,None,0,,,,,sub-003,ses-main-base-l-1,run-1,grey,2024-04-25_13h57.35.495,VDT,2023.2.3,120.46514380750689,2024-04-25 13h57.57.655124 +0200,
./images_beh/Sphere_CCW-1.5_BG-grey_stim-white.png,0,8,8,8,11.448859766009264,,,,,,,,,,11.400688095018268,11.448859766009264,11.448859766009264,12.188368866045494,12.188368866045494,12.355827453022357,None,0,,,,,sub-003,ses-main-base-l-1,run-1,grey,2024-04-25_13h57.35.495,VDT,2023.2.3,120.46514380750689,2024-04-25 13h57.57.655124 +0200,
./images_beh/Sphere_Ref_BG-grey_stim-white.png,0,9,9,9,12.40318170801038,,,,,,,,,,12.356628762034234,12.437274652998894,12.437274652998894,13.18565588601632,13.18565588601632,13.397985365998466,['space'],0,0.6348045769846067,None,,,sub-003,ses-main-base-l-1,run-1,grey,2024-04-25_13h57.35.495,VDT,2023.2.3,120.46514380750689,2024-04-25 13h57.57.655124 +0200,
./images_beh/Sphere_CW-1.5_BG-grey_stim-white.png,0,10,10,10,13.445149448001757,,,,,,,,,,13.399541943043005,13.445149448001757,13.445149448001757,14.186878583044745,14.186878583044745,14.431529788009357,None,0,,,14.430214191030245,,sub-003,ses-main-base-l-1,run-1,grey,2024-04-25_13h57.35.495,VDT,2023.2.3,120.46514380750689,2024-04-25 13h57.57.655124 +0200,
./images_beh/Sphere_CW-1.5_BG-grey_stim-white.png,0,11,11,11,14.479488592012785,,,,,,,,,,14.43233338999562,14.479488592012785,14.479488592012785,15.18600448401412,15.22004793601809,15.397141861030832,None,0,,,,,sub-003,ses-main-base-l-1,run-1,grey,2024-04-25_13h57.35.495,VDT,2023.2.3,120.46514380750689,2024-04-25 13h57.57.655124 +0200,
./images_beh/Sphere_Ref_BG-grey_stim-white.png,0,12,12,12,15.438720319012646,,,,,,,,,,15.397861278033815,15.438720319012646,15.438720319012646,16.18576888903044,16.18576888903044,16.385163718019612,None,0,,,,,sub-003,ses-main-base-l-1,run-1,grey,2024-04-25_13h57.35.495,VDT,2023.2.3,120.46514380750689,2024-04-25 13h57.57.655124 +0200,
./images_beh/Sphere_CCW-1.5_BG-grey_stim-white.png,0,13,13,13,16.42146257002605,,,,,,,,,,16.385687394009437,16.433745231013745,16.433745231013745,17.185712453036103,17.178912994044367,17.362419507000595,None,0,,,,,sub-003,ses-main-base-l-1,run-1,grey,2024-04-25_13h57.35.495,VDT,2023.2.3,120.46514380750689,2024-04-25 13h57.57.655124 +0200,
./images_beh/Sphere_CCW-1.5_BG-grey_stim-white.png,0,14,14,14,17.40862752700923,,,,,,,,,,17.363497890997678,17.433537584031,17.433537584031,18.184456799004693,18.178169766033534,18.379040085012093,None,0,,,,,sub-003,ses-main-base-l-1,run-1,grey,2024-04-25_13h57.35.495,VDT,2023.2.3,120.46514380750689,2024-04-25 13h57.57.655124 +0200,
./images_beh/Sphere_Ref_BG-grey_stim-white.png,0,15,15,15,18.418918829003815,,,,,,,,,,18.379646962042898,18.433084428019356,18.433084428019356,19.18395044299541,19.177418478007894,19.37869862403022,['space'],0,0.4799357290030457,None,,,sub-003,ses-main-base-l-1,run-1,grey,2024-04-25_13h57.35.495,VDT,2023.2.3,120.46514380750689,2024-04-25 13h57.57.655124 +0200,
./images_beh/Sphere_CCW-1.5_BG-grey_stim-white.png,0,16,16,16,19.429466992034577,,,,,,,,,,19.3799885410117,19.444070206023753,19.444070206023753,20.196209822024684,20.196209822024684,20.413928821042646,None,0,,,,,sub-003,ses-main-base-l-1,run-1,grey,2024-04-25_13h57.35.495,VDT,2023.2.3,120.46514380750689,2024-04-25 13h57.57.655124 +0200,
./images_beh/Sphere_CW-1.5_BG-grey_stim-white.png,0,17,17,17,20.461270301020704,,,,,,,,,,20.41464786103461,20.461270301020704,20.461270301020704,21.18502193200402,21.212558574043214,21.37792244600132,None,0,,,,,sub-003,ses-main-base-l-1,run-1,grey,2024-04-25_13h57.35.495,VDT,2023.2.3,120.46514380750689,2024-04-25 13h57.57.655124 +0200,
./images_beh/Sphere_CW-1.5_BG-grey_stim-white.png,0,18,18,18,21.423406563990284,,,,,,,,,,21.3787299960386,21.443022896011826,21.443022896011826,22.183727625990286,22.183727625990286,22.41339110903209,['space'],0,0.7349321069777943,None,,,sub-003,ses-main-base-l-1,run-1,grey,2024-04-25_13h57.35.495,VDT,2023.2.3,120.46514380750689,2024-04-25 13h57.57.655124 +0200,
./images_beh/Sphere_CW-1.5_BG-grey_stim-white.png,0,19,19,19,22.46260185999563,,,,,,,,,,22.414331053034402,22.46260185999563,22.46260185999563,23.18401647702558,23.209993206022773,23.410209477005992,None,0,,,,,sub-003,ses-main-base-l-1,run-1,grey,2024-04-25_13h57.35.495,VDT,2023.2.3,120.46514380750689,2024-04-25 13h57.57.655124 +0200,
./images_beh/Sphere_CCW-1.5_BG-grey_stim-white.png,0,20,20,20,23.458980632014573,,,,,,,,,,23.411391055036802,23.458980632014573,23.458980632014573,24.19462728704093,24.21147000102792,24.409729717997834,None,0,,,,,sub-003,ses-main-base-l-1,run-1,grey,2024-04-25_13h57.35.495,VDT,2023.2.3,120.46514380750689,2024-04-25 13h57.57.655124 +0200,
./images_beh/Sphere_Ref_BG-grey_stim-white.png,0,21,21,21,24.45548131200485,,,,,,,,,,24.410511438036337,24.45548131200485,24.45548131200485,25.182111168047413,25.198535395029467,25.414822561026085,['space'],0,0.8550072139478289,None,,,sub-003,ses-main-base-l-1,run-1,grey,2024-04-25_13h57.35.495,VDT,2023.2.3,120.46514380750689,2024-04-25 13h57.57.655124 +0200,
./images_beh/Sphere_CW-1.5_BG-grey_stim-white.png,0,22,22,22,25.458611358015332,,,,,,,,,,25.41554110799916,25.458611358015332,25.458611358015332,26.18218052701559,26.207433419011068,26.3922556550242,None,0,,,,,sub-003,ses-main-base-l-1,run-1,grey,2024-04-25_13h57.35.495,VDT,2023.2.3,120.46514380750689,2024-04-25 13h57.57.655124 +0200,
./images_beh/Sphere_CW-1.5_BG-grey_stim-white.png,0,23,23,23,26.441021058999468,,,,,,,,,,26.393042345996946,26.441021058999468,26.441021058999468,27.193102209013887,27.193102209013887,27.365061456046533,None,0,,,,,sub-003,ses-main-base-l-1,run-1,grey,2024-04-25_13h57.35.495,VDT,2023.2.3,120.46514380750689,2024-04-25 13h57.57.655124 +0200,
./images_beh/Sphere_Ref_BG-grey_stim-white.png,0,24,24,24,27.412786984990817,,,,,,,,,,27.36577946599573,27.430418989039026,27.430418989039026,28.1808940670453,28.17306748800911,28.357323668024037,['space'],0,0.4814541909727268,None,,,sub-003,ses-main-base-l-1,run-1,grey,2024-04-25_13h57.35.495,VDT,2023.2.3,120.46514380750689,2024-04-25 13h57.57.655124 +0200,
./images_beh/Sphere_CW-1.5_BG-grey_stim-white.png,0,25,25,25,28.399681685026735,,,,,,,,,,28.358185439021327,28.428126545040868,28.428126545040868,29.179311117040925,29.17257045599399,29.380494824028574,None,0,,,,,sub-003,ses-main-base-l-1,run-1,grey,2024-04-25_13h57.35.495,VDT,2023.2.3,120.46514380750689,2024-04-25 13h57.57.655124 +0200,
./images_beh/Sphere_CCW-1.5_BG-grey_stim-white.png,0,26,26,26,29.426548650022596,,,,,,,,,,29.381218886002898,29.439041876001284,29.439041876001284,30.189133556035813,30.189133556035813,30.461785563034937,None,0,,,30.43895863502985,30.43895863502985,sub-003,ses-main-base-l-1,run-1,grey,2024-04-25_13h57.35.495,VDT,2023.2.3,120.46514380750689,2024-04-25 13h57.57.655124 +0200,
./images_beh/Sphere_Ref_BG-grey_stim-white.png,0,27,27,27,30.511718572990503,,,,,,,,,,30.462509914999828,30.511718572990503,30.511718572990503,31.180179700022563,31.25487254699692,31.34261425799923,None,0,,,,,sub-003,ses-main-base-l-1,run-1,grey,2024-04-25_13h57.35.495,VDT,2023.2.3,120.46514380750689,2024-04-25 13h57.57.655124 +0200,
./images_beh/Sphere_CCW-1.5_BG-grey_stim-white.png,0,28,28,28,31.391179055033717,,,,,,,,,,31.343389658024535,31.438074543024413,31.438074543024413,32.18806673301151,32.17784667399246,32.39097878703615,None,0,,,,,sub-003,ses-main-base-l-1,run-1,grey,2024-04-25_13h57.35.495,VDT,2023.2.3,120.46514380750689,2024-04-25 13h57.57.655124 +0200,
./images_beh/Sphere_CCW-1.5_BG-grey_stim-white.png,0,29,29,29,32.43851544102654,,,,,,,,,,32.39192877203459,32.43851544102654,32.43851544102654,33.190144505992066,33.190144505992066,33.37822747800965,None,0,,,,,sub-003,ses-main-base-l-1,run-1,grey,2024-04-25_13h57.35.495,VDT,2023.2.3,120.46514380750689,2024-04-25 13h57.57.655124 +0200,
./images_beh/Sphere_CCW-1.5_BG-grey_stim-white.png,0,30,30,30,33.42479316802928,,,,,,,,,,33.37880636000773,33.43729139899369,33.43729139899369,34.18666716100415,34.17643065802986,34.355478327022865,['space'],0,0.44180378498276696,None,,,sub-003,ses-main-base-l-1,run-1,grey,2024-04-25_13h57.35.495,VDT,2023.2.3,120.46514380750689,2024-04-25 13h57.57.655124 +0200,
./images_beh/Sphere_CW-1.5_BG-grey_stim-white.png,0,31,31,31,34.3993355120183,,,,,,,,,,34.35646118602017,34.4365924380254,34.4365924380254,35.18618254503235,35.175582297029905,35.406574218999594,None,0,,,,,sub-003,ses-main-base-l-1,run-1,grey,2024-04-25_13h57.35.495,VDT,2023.2.3,120.46514380750689,2024-04-25 13h57.57.655124 +0200,
./images_beh/Sphere_Ref_BG-grey_stim-white.png,0,32,32,32,35.4564343370148,,,,,,,,,,35.407300344028044,35.4564343370148,35.4564343370148,36.185543051047716,36.204750012024306,36.40667322603986,['space'],0,0.5203408559900708,None,,,sub-003,ses-main-base-l-1,run-1,grey,2024-04-25_13h57.35.495,VDT,2023.2.3,120.46514380750689,2024-04-25 13h57.57.655124 +0200,
./images_beh/Sphere_CCW-1.5_BG-grey_stim-white.png,0,33,33,33,36.45873729500454,,,,,,,,,,36.408220320008695,36.45873729500454,36.45873729500454,37.185500846011564,37.201679143996444,37.3864195770002,None,0,,,,,sub-003,ses-main-base-l-1,run-1,grey,2024-04-25_13h57.35.495,VDT,2023.2.3,120.46514380750689,2024-04-25 13h57.57.655124 +0200,
./images_beh/Sphere_CCW-1.5_BG-grey_stim-white.png,0,34,34,34,37.43193266203161,,,,,,,,,,37.38716943800682,37.45141841704026,37.45141841704026,38.20387938199565,38.20387938199565,38.40253938501701,None,0,,,,,sub-003,ses-main-base-l-1,run-1,grey,2024-04-25_13h57.35.495,VDT,2023.2.3,120.46514380750689,2024-04-25 13h57.57.655124 +0200,
./images_beh/Sphere_CW-1.5_BG-grey_stim-white.png,0,35,35,35,38.44983271602541,,,,,,,,,,38.40328982099891,38.44983271602541,38.44983271602541,39.192659155,39.192659155,39.38701619801577,None,0,,,,,sub-003,ses-main-base-l-1,run-1,grey,2024-04-25_13h57.35.495,VDT,2023.2.3,120.46514380750689,2024-04-25 13h57.57.655124 +0200,
./images_beh/Sphere_CW-1.5_BG-grey_stim-white.png,0,36,36,36,39.43266468704678,,,,,,,,,,39.387744043022394,39.43882495601429,39.43882495601429,40.18366271501873,40.18366271501873,40.401776504004374,None,0,,,,,sub-003,ses-main-base-l-1,run-1,grey,2024-04-25_13h57.35.495,VDT,2023.2.3,120.46514380750689,2024-04-25 13h57.57.655124 +0200,
./images_beh/Sphere_CCW-1.5_BG-grey_stim-white.png,0,37,37,37,40.449788910045754,,,,,,,,,,40.40257453604136,40.449788910045754,40.449788910045754,41.183049336017575,41.190072912024334,41.367651075997856,None,0,,,,,sub-003,ses-main-base-l-1,run-1,grey,2024-04-25_13h57.35.495,VDT,2023.2.3,120.46514380750689,2024-04-25 13h57.57.655124 +0200,
./images_beh/Sphere_CW-1.5_BG-grey_stim-white.png,0,38,38,38,41.41404656803934,,,,,,,,,,41.36841751204338,41.43952853803057,41.43952853803057,42.18249704199843,42.18249704199843,42.39049007499125,None,0,,,,,sub-003,ses-main-base-l-1,run-1,grey,2024-04-25_13h57.35.495,VDT,2023.2.3,120.46514380750689,2024-04-25 13h57.57.655124 +0200,
./images_beh/Sphere_Ref_BG-grey_stim-white.png,0,39,39,39,42.44056479400024,,,,,,,,,,42.39168578502722,42.44056479400024,42.44056479400024,43.189268587040715,43.189268587040715,43.423565503035206,['space'],0,0.5033457049867138,None,,,sub-003,ses-main-base-l-1,run-1,grey,2024-04-25_13h57.35.495,VDT,2023.2.3,120.46514380750689,2024-04-25 13h57.57.655124 +0200,
./images_beh/Sphere_CW-1.5_BG-grey_stim-white.png,0,40,40,40,43.4749648370198,,,,,,,,,,43.42553271504585,43.4749648370198,43.4749648370198,44.19017886603251,44.22166446299525,44.3826663850341,None,0,,,,,sub-003,ses-main-base-l-1,run-1,grey,2024-04-25_13h57.35.495,VDT,2023.2.3,120.46514380750689,2024-04-25 13h57.57.655124 +0200,
./images_beh/Sphere_CCW-1.5_BG-grey_stim-white.png,0,41,41,41,44.42758437001612,,,,,,,,,,44.38327077700524,44.43325060803909,44.43325060803909,45.188628851028625,45.18118803901598,45.38912203104701,None,0,,,,,sub-003,ses-main-base-l-1,run-1,grey,2024-04-25_13h57.35.495,VDT,2023.2.3,120.46514380750689,2024-04-25 13h57.57.655124 +0200,
./images_beh/Sphere_Ref_BG-grey_stim-white.png,0,42,42,42,45.43436246202327,,,,,,,,,,45.38984089699807,45.44730811699992,45.44730811699992,46.18770404002862,46.18770404002862,46.38107828400098,['space'],0,0.8652802370488644,None,,,sub-003,ses-main-base-l-1,run-1,grey,2024-04-25_13h57.35.495,VDT,2023.2.3,120.46514380750689,2024-04-25 13h57.57.655124 +0200,
./images_beh/Sphere_CCW-1.5_BG-grey_stim-white.png,0,43,43,43,46.41610536904773,,,,,,,,,,46.381956967001315,46.43616398400627,46.43616398400627,47.187398190028034,47.18025957100326,47.36454208003124,None,0,,,,,sub-003,ses-main-base-l-1,run-1,grey,2024-04-25_13h57.35.495,VDT,2023.2.3,120.46514380750689,2024-04-25 13h57.57.655124 +0200,
./images_beh/Sphere_CCW-1.5_BG-grey_stim-white.png,0,44,44,44,47.40850728499936,,,,,,,,,,47.36576372402487,47.43642797204666,47.43642797204666,48.18679783004336,48.179640665999614,48.39661864301888,None,0,,,,,sub-003,ses-main-base-l-1,run-1,grey,2024-04-25_13h57.35.495,VDT,2023.2.3,120.46514380750689,2024-04-25 13h57.57.655124 +0200,
./images_beh/Sphere_CCW-1.5_BG-grey_stim-white.png,0,45,45,45,48.43756775499787,,,,,,,,,,48.39760176104028,48.43756775499787,48.43756775499787,49.184738109004684,49.184738109004684,49.40326848602854,None,0,,,,,sub-003,ses-main-base-l-1,run-1,grey,2024-04-25_13h57.35.495,VDT,2023.2.3,120.46514380750689,2024-04-25 13h57.57.655124 +0200,
./images_beh/Sphere_CW-1.5_BG-grey_stim-white.png,0,46,46,46,49.450625196041074,,,,,,,,,,49.4039409920224,49.450625196041074,49.450625196041074,50.18588742002612,50.19510845799232,50.386510244046804,None,0,,,,,sub-003,ses-main-base-l-1,run-1,grey,2024-04-25_13h57.35.495,VDT,2023.2.3,120.46514380750689,2024-04-25 13h57.57.655124 +0200,
./images_beh/Sphere_CW-1.5_BG-grey_stim-white.png,0,47,47,47,50.4338712960016,,,,,,,,,,50.387229093001224,50.44458333600778,50.44458333600778,51.18500735599082,51.18500735599082,51.41188944102032,None,0,,,,,sub-003,ses-main-base-l-1,run-1,grey,2024-04-25_13h57.35.495,VDT,2023.2.3,120.46514380750689,2024-04-25 13h57.57.655124 +0200,
./images_beh/Sphere_Ref_BG-grey_stim-white.png,0,48,48,48,51.45613828202477,,,,,,,,,,51.41306336701382,51.45613828202477,51.45613828202477,52.18530444701901,52.20105524704559,52.378961286041886,['space'],0,0.5193530769902281,None,,,sub-003,ses-main-base-l-1,run-1,grey,2024-04-25_13h57.35.495,VDT,2023.2.3,120.46514380750689,2024-04-25 13h57.57.655124 +0200,
./images_beh/Sphere_CW-1.5_BG-grey_stim-white.png,0,49,49,49,52.42253758304287,,,,,,,,,,52.380241748993285,52.42713459703373,52.42713459703373,53.18431335000787,53.17708004300948,53.42872989200987,None,0,,,,53.427182503044605,sub-003,ses-main-base-l-1,run-1,grey,2024-04-25_13h57.35.495,VDT,2023.2.3,120.46514380750689,2024-04-25 13h57.57.655124 +0200,
./images_beh/Sphere_CCW-1.5_BG-grey_stim-white.png,0,50,50,50,53.47814343700884,,,,,,,,,,53.4295309210429,53.47814343700884,53.47814343700884,54.19644430803601,54.22653134202119,54.401218502025586,None,0,,,,,sub-003,ses-main-base-l-1,run-1,grey,2024-04-25_13h57.35.495,VDT,2023.2.3,120.46514380750689,2024-04-25 13h57.57.655124 +0200,
./images_beh/Sphere_Ref_BG-grey_stim-white.png,0,51,51,51,54.44732216204284,,,,,,,,,,54.4019432470086,54.44732216204284,54.44732216204284,55.18395930004772,55.19260450400179,55.392753904045094,['space'],0,0.6003957320353948,None,,,sub-003,ses-main-base-l-1,run-1,grey,2024-04-25_13h57.35.495,VDT,2023.2.3,120.46514380750689,2024-04-25 13h57.57.655124 +0200,
./images_beh/Sphere_CCW-1.5_BG-grey_stim-white.png,0,52,52,52,55.43640487099765,,,,,,,,,,55.393480525992345,55.4421388390474,55.4421388390474,56.18297091702698,56.18297091702698,56.465621692012064,None,0,,,56.42543760704575,56.43090867600404,sub-003,ses-main-base-l-1,run-1,grey,2024-04-25_13h57.35.495,VDT,2023.2.3,120.46514380750689,2024-04-25 13h57.57.655124 +0200,
./images_beh/Sphere_CW-1.5_BG-grey_stim-white.png,0,53,53,53,56.50927075202344,,,,,,,,,,56.4664061650401,56.50927075202344,56.50927075202344,57.18212906003464,57.25799521803856,57.36643922101939,None,0,,,,,sub-003,ses-main-base-l-1,run-1,grey,2024-04-25_13h57.35.495,VDT,2023.2.3,120.46514380750689,2024-04-25 13h57.57.655124 +0200,
./images_beh/Sphere_CW-1.5_BG-grey_stim-white.png,0,54,54,54,57.41254348604707,,,,,,,,,,57.36715880804695,57.43069500901038,57.43069500901038,58.1818096920033,58.17453886003932,58.39503050601343,None,0,,,,,sub-003,ses-main-base-l-1,run-1,grey,2024-04-25_13h57.35.495,VDT,2023.2.3,120.46514380750689,2024-04-25 13h57.57.655124 +0200,
./images_beh/Sphere_CCW-1.5_BG-grey_stim-white.png,0,55,55,55,58.44171137502417,,,,,,,,,,58.39578911103308,58.44171137502417,58.44171137502417,59.181749181996565,59.181749181996565,59.392049201997,None,0,,,,,sub-003,ses-main-base-l-1,run-1,grey,2024-04-25_13h57.35.495,VDT,2023.2.3,120.46514380750689,2024-04-25 13h57.57.655124 +0200,
./images_beh/Sphere_CW-1.5_BG-grey_stim-white.png,0,56,56,56,59.44091646303423,,,,,,,,,,59.39300275902497,59.44091646303423,59.44091646303423,60.18095926003298,60.18095926003298,60.38124775199685,None,0,,,,,sub-003,ses-main-base-l-1,run-1,grey,2024-04-25_13h57.35.495,VDT,2023.2.3,120.46514380750689,2024-04-25 13h57.57.655124 +0200,
./images_beh/Sphere_Ref_BG-grey_stim-white.png,0,57,57,57,60.42663696000818,,,,,,,,,,60.38201013504295,60.43994702101918,60.43994702101918,61.17991104099201,61.17991104099201,61.42389597999863,['space'],0,0.5438815589877777,None,61.42300216399599,,sub-003,ses-main-base-l-1,run-1,grey,2024-04-25_13h57.35.495,VDT,2023.2.3,120.46514380750689,2024-04-25 13h57.57.655124 +0200,
./images_beh/Sphere_CW-1.5_BG-grey_stim-white.png,0,58,58,58,61.467793007032014,,,,,,,,,,61.42590089701116,61.467793007032014,61.467793007032014,62.18063932802761,62.21281941200141,62.37408365000738,None,0,,,,,sub-003,ses-main-base-l-1,run-1,grey,2024-04-25_13h57.35.495,VDT,2023.2.3,120.46514380750689,2024-04-25 13h57.57.655124 +0200,
./images_beh/Sphere_CCW-1.5_BG-grey_stim-white.png,0,59,59,59,62.42173464701045,,,,,,,,,,62.375054125033785,62.43883137800731,62.43883137800731,63.179527917003725,63.179527917003725,63.44005442003254,None,0,,,63.422343495010864,63.42794539802708,sub-003,ses-main-base-l-1,run-1,grey,2024-04-25_13h57.35.495,VDT,2023.2.3,120.46514380750689,2024-04-25 13h57.57.655124 +0200,
./images_beh/Sphere_CW-1.5_BG-grey_stim-white.png,0,60,60,60,63.48706260602921,,,,,,,,,,63.44082514103502,63.48706260602921,63.48706260602921,64.18803985102568,64.22864620899782,64.35672748700017,None,0,,,,,sub-003,ses-main-base-l-1,run-1,grey,2024-04-25_13h57.35.495,VDT,2023.2.3,120.46514380750689,2024-04-25 13h57.57.655124 +0200,
./images_beh/Sphere_Ref_BG-grey_stim-white.png,0,61,61,61,64.40277618099935,,,,,,,,,,64.3573769730283,64.43809088104172,64.43809088104172,65.18697756301844,65.1751092520426,65.37172331899637,['space'],0,0.5859001619974151,None,,,sub-003,ses-main-base-l-1,run-1,grey,2024-04-25_13h57.35.495,VDT,2023.2.3,120.46514380750689,2024-04-25 13h57.57.655124 +0200,
./images_beh/Sphere_CCW-1.5_BG-grey_stim-white.png,0,62,62,62,65.4148072040407,,,,,,,,,,65.37263682100456,65.43730412604054,65.43730412604054,66.18725587299559,66.17815795901697,66.40457176102791,None,0,,,,,sub-003,ses-main-base-l-1,run-1,grey,2024-04-25_13h57.35.495,VDT,2023.2.3,120.46514380750689,2024-04-25 13h57.57.655124 +0200,
./images_beh/Sphere_CW-1.5_BG-grey_stim-white.png,0,63,63,63,66.45335555000929,,,,,,,,,,66.40588133002166,66.45335555000929,66.45335555000929,67.18675630004145,67.19395479402738,67.37052520504221,None,0,,,,,sub-003,ses-main-base-l-1,run-1,grey,2024-04-25_13h57.35.495,VDT,2023.2.3,120.46514380750689,2024-04-25 13h57.57.655124 +0200,
./images_beh/Sphere_Ref_BG-grey_stim-white.png,0,64,64,64,67.41000739304582,,,,,,,,,,67.37144234601874,67.43644765001955,67.43644765001955,68.18601761304308,68.17488200298976,68.3868168850313,None,0,,,,,sub-003,ses-main-base-l-1,run-1,grey,2024-04-25_13h57.35.495,VDT,2023.2.3,120.46514380750689,2024-04-25 13h57.57.655124 +0200,
./images_beh/Sphere_CW-1.5_BG-grey_stim-white.png,0,65,65,65,68.42915827699471,,,,,,,,,,68.3876950200065,68.43527004000498,68.43527004000498,69.18611610104563,69.17453718802426,69.42242064099992,None,0,,,,,sub-003,ses-main-base-l-1,run-1,grey,2024-04-25_13h57.35.495,VDT,2023.2.3,120.46514380750689,2024-04-25 13h57.57.655124 +0200,
./images_beh/Sphere_CW-1.5_BG-grey_stim-white.png,0,66,66,66,69.4695479660295,,,,,,,,,,69.42315456201322,69.4695479660295,69.4695479660295,70.19420736702159,70.2097911920282,70.35495261300821,None,0,,,,,sub-003,ses-main-base-l-1,run-1,grey,2024-04-25_13h57.35.495,VDT,2023.2.3,120.46514380750689,2024-04-25 13h57.57.655124 +0200,
./images_beh/Sphere_CCW-1.5_BG-grey_stim-white.png,0,67,67,67,70.40245404903544,,,,,,,,,,70.3557234830223,70.43514472799143,70.43514472799143,71.18451456999173,71.17384923901409,71.40486435900675,None,0,,,,,sub-003,ses-main-base-l-1,run-1,grey,2024-04-25_13h57.35.495,VDT,2023.2.3,120.46514380750689,2024-04-25 13h57.57.655124 +0200,
./images_beh/Sphere_Ref_BG-grey_stim-white.png,0,68,68,68,71.45159414503723,,,,,,,,,,71.40562171500642,71.45159414503723,71.45159414503723,72.18384012702154,72.20010253699729,72.38459611404687,['space'],0,0.7237254859646782,None,,,sub-003,ses-main-base-l-1,run-1,grey,2024-04-25_13h57.35.495,VDT,2023.2.3,120.46514380750689,2024-04-25 13h57.57.655124 +0200,
./images_beh/Sphere_CCW-1.5_BG-grey_stim-white.png,0,69,69,69,72.42375542101217,,,,,,,,,,72.38560284301639,72.43374908599071,72.43374908599071,73.18611723202048,73.17315011500614,73.38732377800625,None,0,,,,,sub-003,ses-main-base-l-1,run-1,grey,2024-04-25_13h57.35.495,VDT,2023.2.3,120.46514380750689,2024-04-25 13h57.57.655124 +0200,
./images_beh/Sphere_CCW-1.5_BG-grey_stim-white.png,0,70,70,70,73.4320827780175,,,,,,,,,,73.38804649503436,73.43827593402239,73.43827593402239,74.18295394501183,74.18295394501183,74.4005303340382,None,0,,,,,sub-003,ses-main-base-l-1,run-1,grey,2024-04-25_13h57.35.495,VDT,2023.2.3,120.46514380750689,2024-04-25 13h57.57.655124 +0200,
./images_beh/Sphere_CCW-1.5_BG-grey_stim-white.png,0,71,71,71,74.44912329001818,,,,,,,,,,74.40158654004335,74.44912329001818,74.44912329001818,75.18532896001125,75.20161989401095,75.37361799599603,None,0,,,,,sub-003,ses-main-base-l-1,run-1,grey,2024-04-25_13h57.35.495,VDT,2023.2.3,120.46514380750689,2024-04-25 13h57.57.655124 +0200,
./images_beh/Sphere_CW-1.5_BG-grey_stim-white.png,0,72,72,72,75.41899941203883,,,,,,,,,,75.37423296103952,75.43831348099047,75.43831348099047,76.18986700801179,76.18986700801179,76.40750743699027,None,0,,,,,sub-003,ses-main-base-l-1,run-1,grey,2024-04-25_13h57.35.495,VDT,2023.2.3,120.46514380750689,2024-04-25 13h57.57.655124 +0200,
./images_beh/Sphere_CCW-1.5_BG-grey_stim-white.png,0,73,73,73,76.45472407602938,,,,,,,,,,76.4084239419899,76.45472407602938,76.45472407602938,77.1898752740235,77.19809894700302,77.3828959200182,None,0,,,,,sub-003,ses-main-base-l-1,run-1,grey,2024-04-25_13h57.35.495,VDT,2023.2.3,120.46514380750689,2024-04-25 13h57.57.655124 +0200,
./images_beh/Sphere_Ref_BG-grey_stim-white.png,0,74,74,74,77.43022776400903,,,,,,,,,,77.38369192002574,77.43587070103968,77.43587070103968,78.18833074602298,78.18079698999645,78.37070303800283,['space'],0,0.7718795110122301,None,,,sub-003,ses-main-base-l-1,run-1,grey,2024-04-25_13h57.35.495,VDT,2023.2.3,120.46514380750689,2024-04-25 13h57.57.655124 +0200,
./images_beh/Sphere_CW-1.5_BG-grey_stim-white.png,0,75,75,75,78.40946054202504,,,,,,,,,,78.3713691040175,78.43622228101594,78.43622228101594,79.18666150700301,79.18035804404644,79.43127474904759,None,0,,,79.4301726790145,79.4301726790145,sub-003,ses-main-base-l-1,run-1,grey,2024-04-25_13h57.35.495,VDT,2023.2.3,120.46514380750689,2024-04-25 13h57.57.655124 +0200,
./images_beh/Sphere_CW-1.5_BG-grey_stim-white.png,0,76,76,76,79.47700589901069,,,,,,,,,,79.43241690599825,79.47700589901069,79.47700589901069,80.18682856403757,80.22021721501369,80.38052733702352,None,0,,,,,sub-003,ses-main-base-l-1,run-1,grey,2024-04-25_13h57.35.495,VDT,2023.2.3,120.46514380750689,2024-04-25 13h57.57.655124 +0200,
./images_beh/Sphere_Ref_BG-grey_stim-white.png,0,77,77,77,80.42309876601212,,,,,,,,,,80.38147203903645,80.42951445904328,80.42951445904328,81.18402605503798,81.16678564599715,81.36765928100795,None,0,,,,,sub-003,ses-main-base-l-1,run-1,grey,2024-04-25_13h57.35.495,VDT,2023.2.3,120.46514380750689,2024-04-25 13h57.57.655124 +0200,
./images_beh/Sphere_CCW-1.5_BG-grey_stim-white.png,0,78,78,78,81.40168849000474,,,,,,,,,,81.36800860101357,81.434303076996,81.434303076996,82.18419271003222,82.17865928600077,82.3839947070228,None,0,,,,,sub-003,ses-main-base-l-1,run-1,grey,2024-04-25_13h57.35.495,VDT,2023.2.3,120.46514380750689,2024-04-25 13h57.57.655124 +0200,
./images_beh/Sphere_CCW-1.5_BG-grey_stim-white.png,0,79,79,79,82.41373284201836,,,,,,,,,,82.3842880000011,82.43367888702778,82.43367888702778,83.18332191201625,83.17791446304182,83.34991687600268,None,0,,,,,sub-003,ses-main-base-l-1,run-1,grey,2024-04-25_13h57.35.495,VDT,2023.2.3,120.46514380750689,2024-04-25 13h57.57.655124 +0200,
./images_beh/Sphere_CCW-1.5_BG-grey_stim-white.png,0,80,80,80,83.38414468604606,,,,,,,,,,83.35022967902478,83.43333366402658,83.43333366402658,84.1828748290427,84.1828748290427,84.41849228000501,None,0,,,,,sub-003,ses-main-base-l-1,run-1,grey,2024-04-25_13h57.35.495,VDT,2023.2.3,120.46514380750689,2024-04-25 13h57.57.655124 +0200,
./images_beh/Sphere_CW-1.5_BG-grey_stim-white.png,0,81,81,81,84.4620145750232,,,,,,,,,,84.41908093803795,84.4620145750232,84.4620145750232,85.18443133099936,85.21069269999862,85.40087648201734,None,0,,,,,sub-003,ses-main-base-l-1,run-1,grey,2024-04-25_13h57.35.495,VDT,2023.2.3,120.46514380750689,2024-04-25 13h57.57.655124 +0200,
./images_beh/Sphere_Ref_BG-grey_stim-white.png,0,82,82,82,85.4449823719915,,,,,,,,,,85.40160078200279,85.4449823719915,85.4449823719915,86.18224301404553,86.19308467302471,86.38211999402847,['space'],0,0.41025270899990574,None,,,sub-003,ses-main-base-l-1,run-1,grey,2024-04-25_13h57.35.495,VDT,2023.2.3,120.46514380750689,2024-04-25 13h57.57.655124 +0200,
./images_beh/Sphere_CW-1.5_BG-grey_stim-white.png,0,83,83,83,86.41786057699937,,,,,,,,,,86.38254640903324,86.4315478799981,86.4315478799981,87.18314301304054,87.17636545799905,87.44360233703628,None,0,,,87.42663746699691,87.42663746699691,sub-003,ses-main-base-l-1,run-1,grey,2024-04-25_13h57.35.495,VDT,2023.2.3,120.46514380750689,2024-04-25 13h57.57.655124 +0200,
./images_beh/Sphere_CCW-1.5_BG-grey_stim-white.png,0,84,84,84,87.49125579802785,,,,,,,,,,87.44476796203526,87.49125579802785,87.49125579802785,88.1832766130101,88.23265615903074,88.41048188903369,None,0,,,,,sub-003,ses-main-base-l-1,run-1,grey,2024-04-25_13h57.35.495,VDT,2023.2.3,120.46514380750689,2024-04-25 13h57.57.655124 +0200,
./images_beh/Sphere_Ref_BG-grey_stim-white.png,0,85,85,85,88.45936300902395,,,,,,,,,,88.41128323302837,88.45936300902395,88.45936300902395,89.19273808604339,89.19983766204678,89.38091080600861,['space'],0,0.7570634410367347,None,,,sub-003,ses-main-base-l-1,run-1,grey,2024-04-25_13h57.35.495,VDT,2023.2.3,120.46514380750689,2024-04-25 13h57.57.655124 +0200,
./images_beh/Sphere_CCW-1.5_BG-grey_stim-white.png,0,86,86,86,89.41904100304237,,,,,,,,,,89.38157060503727,89.43013989500469,89.43013989500469,90.18215390999103,90.17539901303826,90.38326346699614,None,0,,,,,sub-003,ses-main-base-l-1,run-1,grey,2024-04-25_13h57.35.495,VDT,2023.2.3,120.46514380750689,2024-04-25 13h57.57.655124 +0200,
./images_beh/Sphere_CW-1.5_BG-grey_stim-white.png,0,87,87,87,90.43036088201916,,,,,,,,,,90.3841291970457,90.44177991204197,90.44177991204197,91.18163023499073,91.18163023499073,91.4417961119907,None,0,,,91.43025539600058,91.43025539600058,sub-003,ses-main-base-l-1,run-1,grey,2024-04-25_13h57.35.495,VDT,2023.2.3,120.46514380750689,2024-04-25 13h57.57.655124 +0200,
./images_beh/Sphere_CW-1.5_BG-grey_stim-white.png,0,88,88,88,91.4921876899898,,,,,,,,,,91.44297200400615,91.4921876899898,91.4921876899898,92.18146443401929,92.24047134199645,92.38148055202328,None,0,,,,,sub-003,ses-main-base-l-1,run-1,grey,2024-04-25_13h57.35.495,VDT,2023.2.3,120.46514380750689,2024-04-25 13h57.57.655124 +0200,
./images_beh/Sphere_CCW-1.5_BG-grey_stim-white.png,0,89,89,89,92.4293318890268,,,,,,,,,,92.38221334503032,92.44002838904271,92.44002838904271,93.18051359400852,93.18051359400852,93.41457934299251,None,0,,,,,sub-003,ses-main-base-l-1,run-1,grey,2024-04-25_13h57.35.495,VDT,2023.2.3,120.46514380750689,2024-04-25 13h57.57.655124 +0200,
./images_beh/Sphere_CCW-1.5_BG-grey_stim-white.png,0,90,90,90,93.46389064803952,,,,,,,,,,93.41529972304124,93.46389064803952,93.46389064803952,94.18067034403794,94.20609008701285,94.37639788002707,None,0,,,,,sub-003,ses-main-base-l-1,run-1,grey,2024-04-25_13h57.35.495,VDT,2023.2.3,120.46514380750689,2024-04-25 13h57.57.655124 +0200,
./images_beh/Sphere_CCW-1.5_BG-grey_stim-white.png,0,91,91,91,94.42359283700353,,,,,,,,,,94.3771259119967,94.43917465000413,94.43917465000413,95.17961913603358,95.17961913603358,95.35662687203148,None,0,,,,,sub-003,ses-main-base-l-1,run-1,grey,2024-04-25_13h57.35.495,VDT,2023.2.3,120.46514380750689,2024-04-25 13h57.57.655124 +0200,
./images_beh/Sphere_Ref_BG-grey_stim-white.png,0,92,92,92,95.39852520701243,,,,,,,,,,95.35749299300369,95.4284882050124,95.4284882050124,96.18832648702664,96.17178216902539,96.4126393130282,['space'],0,0.6125385189661756,None,,,sub-003,ses-main-base-l-1,run-1,grey,2024-04-25_13h57.35.495,VDT,2023.2.3,120.46514380750689,2024-04-25 13h57.57.655124 +0200,
./images_beh/Sphere_CW-1.5_BG-grey_stim-white.png,0,93,93,93,96.45456702704541,,,,,,,,,,96.41339566902025,96.45456702704541,96.45456702704541,97.18778367404593,97.19440790999215,97.40518913901178,None,0,,,,,sub-003,ses-main-base-l-1,run-1,grey,2024-04-25_13h57.35.495,VDT,2023.2.3,120.46514380750689,2024-04-25 13h57.57.655124 +0200,
./images_beh/Sphere_CW-1.5_BG-grey_stim-white.png,0,94,94,94,97.45135678903898,,,,,,,,,,97.40616880200105,97.45135678903898,97.45135678903898,98.18724487803411,98.19338647800032,98.35546560201328,None,0,,,,,sub-003,ses-main-base-l-1,run-1,grey,2024-04-25_13h57.35.495,VDT,2023.2.3,120.46514380750689,2024-04-25 13h57.57.655124 +0200,
./images_beh/Sphere_CW-1.5_BG-grey_stim-white.png,0,95,95,95,98.40117690403713,,,,,,,,,,98.35624390200246,98.43735709501198,98.43735709501198,99.18682862102287,99.17593538603978,99.39427201502258,None,0,,,,,sub-003,ses-main-base-l-1,run-1,grey,2024-04-25_13h57.35.495,VDT,2023.2.3,120.46514380750689,2024-04-25 13h57.57.655124 +0200,
./images_beh/Sphere_CW-1.5_BG-grey_stim-white.png,0,96,96,96,99.43970667704707,,,,,,,,,,99.39495703799184,99.43970667704707,99.43970667704707,100.18667942099273,100.18667942099273,100.3709172999952,None,0,,,,,sub-003,ses-main-base-l-1,run-1,grey,2024-04-25_13h57.35.495,VDT,2023.2.3,120.46514380750689,2024-04-25 13h57.57.655124 +0200,
./images_beh/Sphere_CW-1.5_BG-grey_stim-white.png,0,97,97,97,100.41454143903684,,,,,,,,,,100.3717468570103,100.43615276401397,100.43615276401397,101.18879284703871,101.17509431502549,101.40620815102011,None,0,,,,,sub-003,ses-main-base-l-1,run-1,grey,2024-04-25_13h57.35.495,VDT,2023.2.3,120.46514380750689,2024-04-25 13h57.57.655124 +0200,
./images_beh/Sphere_Ref_BG-grey_stim-white.png,0,98,98,98,101.45434400200611,,,,,,,,,,101.40698247699765,101.45434400200611,101.45434400200611,102.18524911202257,102.20179995201761,102.38619103399105,['space'],0,0.4663346710149199,None,,,sub-003,ses-main-base-l-1,run-1,grey,2024-04-25_13h57.35.495,VDT,2023.2.3,120.46514380750689,2024-04-25 13h57.57.655124 +0200,
./images_beh/Sphere_CCW-1.5_BG-grey_stim-white.png,0,99,99,99,102.43331196100917,,,,,,,,,,102.38744473300176,102.43840746203205,102.43840746203205,103.18511109304382,103.18511109304382,103.45217729802243,None,0,,,103.42362817900721,103.43466282403097,sub-003,ses-main-base-l-1,run-1,grey,2024-04-25_13h57.35.495,VDT,2023.2.3,120.46514380750689,2024-04-25 13h57.57.655124 +0200,
./images_beh/Sphere_CCW-1.5_BG-grey_stim-white.png,0,100,100,100,103.49818965204759,,,,,,,,,,103.45311453100294,103.49818965204759,103.49818965204759,104.18447120703058,104.2405034720432,104.37123968702508,None,0,,,,,sub-003,ses-main-base-l-1,run-1,grey,2024-04-25_13h57.35.495,VDT,2023.2.3,120.46514380750689,2024-04-25 13h57.57.655124 +0200,
./images_beh/Sphere_CW-1.5_BG-grey_stim-white.png,0,101,101,101,104.41812964499695,,,,,,,,,,104.37196100701112,104.43988211301621,104.43988211301621,105.18620191601804,105.18620191601804,105.40210759901674,None,0,,,,,sub-003,ses-main-base-l-1,run-1,grey,2024-04-25_13h57.35.495,VDT,2023.2.3,120.46514380750689,2024-04-25 13h57.57.655124 +0200,
./images_beh/Sphere_Ref_BG-grey_stim-white.png,0,102,102,102,105.44837001303677,,,,,,,,,,105.40283942199312,105.44837001303677,105.44837001303677,106.18319717503618,106.18921874504304,106.3908607030171,['space'],0,0.6787033809814602,None,,,sub-003,ses-main-base-l-1,run-1,grey,2024-04-25_13h57.35.495,VDT,2023.2.3,120.46514380750689,2024-04-25 13h57.57.655124 +0200,
./images_beh/Sphere_CCW-1.5_BG-grey_stim-white.png,0,103,103,103,106.43891063402407,,,,,,,,,,106.3918570720125,106.43891063402407,106.43891063402407,107.18267920101061,107.18267920101061,107.35020490799798,None,0,,,,,sub-003,ses-main-base-l-1,run-1,grey,2024-04-25_13h57.35.495,VDT,2023.2.3,120.46514380750689,2024-04-25 13h57.57.655124 +0200,
./images_beh/Sphere_CW-1.5_BG-grey_stim-white.png,0,104,104,104,107.39832198701333,,,,,,,,,,107.3514428139897,107.43939778604545,107.43939778604545,108.18930494302185,108.18930494302185,108.37344012001995,None,0,,,,,sub-003,ses-main-base-l-1,run-1,grey,2024-04-25_13h57.35.495,VDT,2023.2.3,120.46514380750689,2024-04-25 13h57.57.655124 +0200,
./images_beh/Sphere_Ref_BG-grey_stim-white.png,0,105,105,105,108.41865717701148,,,,,,,,,,108.3742526260321,108.43787417002022,108.43787417002022,109.1816820690292,109.1816820690292,109.35595698002726,['space'],0,0.4415071990224533,None,,,sub-003,ses-main-base-l-1,run-1,grey,2024-04-25_13h57.35.495,VDT,2023.2.3,120.46514380750689,2024-04-25 13h57.57.655124 +0200,
./images_beh/Sphere_CCW-1.5_BG-grey_stim-white.png,0,106,106,106,109.4039832430426,,,,,,,,,,109.35711898404406,109.4375204879907,109.4375204879907,110.18144546204712,110.18144546204712,110.3993026020471,None,0,,,,,sub-003,ses-main-base-l-1,run-1,grey,2024-04-25_13h57.35.495,VDT,2023.2.3,120.46514380750689,2024-04-25 13h57.57.655124 +0200,
./images_beh/Sphere_CCW-1.5_BG-grey_stim-white.png,0,107,107,107,110.44644208298996,,,,,,,,,,110.40009365003789,110.44644208298996,110.44644208298996,111.18740484101,111.18740484101,111.40082334104227,None,0,,,,,sub-003,ses-main-base-l-1,run-1,grey,2024-04-25_13h57.35.495,VDT,2023.2.3,120.46514380750689,2024-04-25 13h57.57.655124 +0200,
./images_beh/Sphere_CCW-1.5_BG-grey_stim-white.png,0,108,108,108,111.449147464009,,,,,,,,,,111.40154616703512,111.449147464009,111.449147464009,112.18743614503182,112.19709888799116,112.36466584401205,None,0,,,,,sub-003,ses-main-base-l-1,run-1,grey,2024-04-25_13h57.35.495,VDT,2023.2.3,120.46514380750689,2024-04-25 13h57.57.655124 +0200,
./images_beh/Sphere_CCW-1.5_BG-grey_stim-white.png,0,109,109,109,112.41183850902598,,,,,,,,,,112.36544851504732,112.43527289800113,112.43527289800113,113.18674837902654,113.17984382202849,113.34725991101004,None,0,,,,,sub-003,ses-main-base-l-1,run-1,grey,2024-04-25_13h57.35.495,VDT,2023.2.3,120.46514380750689,2024-04-25 13h57.57.655124 +0200,
./images_beh/Sphere_Ref_BG-grey_stim-white.png,0,110,110,110,113.39384488400538,,,,,,,,,,113.3482386150281,113.43607704201713,113.43607704201713,114.18609904899495,114.17931449500611,114.42059876199346,None,0,,,,,sub-003,ses-main-base-l-1,run-1,grey,2024-04-25_13h57.35.495,VDT,2023.2.3,120.46514380750689,2024-04-25 13h57.57.655124 +0200,
./images_beh/Sphere_CW-1.5_BG-grey_stim-white.png,0,111,111,111,114.46832420903957,,,,,,,,,,114.42138166900259,114.46832420903957,114.46832420903957,115.18649584701052,115.211976436025,115.35295587102883,['space'],0,0.35496879601851106,None,,,sub-003,ses-main-base-l-1,run-1,grey,2024-04-25_13h57.35.495,VDT,2023.2.3,120.46514380750689,2024-04-25 13h57.57.655124 +0200,
./images_beh/Sphere_CCW-1.5_BG-grey_stim-white.png,0,112,112,112,115.40068891103147,,,,,,,,,,115.35391654202249,115.44487340602791,115.44487340602791,116.18432220304385,116.18432220304385,116.4503892280045,None,0,,,116.42803818604443,116.43315421900479,sub-003,ses-main-base-l-1,run-1,grey,2024-04-25_13h57.35.495,VDT,2023.2.3,120.46514380750689,2024-04-25 13h57.57.655124 +0200,
./images_beh/Sphere_CW-1.5_BG-grey_stim-white.png,0,113,113,113,116.49298705602996,,,,,,,,,,116.45097894204082,116.49298705602996,116.49298705602996,117.1850851289928,117.23414842400234,117.35079736902844,None,0,,,,,sub-003,ses-main-base-l-1,run-1,grey,2024-04-25_13h57.35.495,VDT,2023.2.3,120.46514380750689,2024-04-25 13h57.57.655124 +0200,
./images_beh/Sphere_Ref_BG-grey_stim-white.png,0,114,114,114,117.39304894499946,,,,,,,,,,117.35159944702173,117.43367326300358,117.43367326300358,118.18267188599566,118.17703996202908,118.37803824600996,['space'],0,0.5972316540428437,None,,,sub-003,ses-main-base-l-1,run-1,grey,2024-04-25_13h57.35.495,VDT,2023.2.3,120.46514380750689,2024-04-25 13h57.57.655124 +0200,
./images_beh/Sphere_CW-1.5_BG-grey_stim-white.png,0,115,115,115,118.42176029499387,,,,,,,,,,118.37930184899596,118.43122809502529,118.43122809502529,119.18244506104384,119.1764898840338,119.42722287902143,None,0,,,119.42625611904077,119.42625611904077,sub-003,ses-main-base-l-1,run-1,grey,2024-04-25_13h57.35.495,VDT,2023.2.3,120.46514380750689,2024-04-25 13h57.57.655124 +0200,
./images_beh/Sphere_CW-1.5_BG-grey_stim-white.png,0,116,116,116,119.4743720460101,,,,,,,,,,119.42837972403504,119.4743720460101,119.4743720460101,120.18454084801488,120.21631486801198,120.36728853301611,None,0,,,,,sub-003,ses-main-base-l-1,run-1,grey,2024-04-25_13h57.35.495,VDT,2023.2.3,120.46514380750689,2024-04-25 13h57.57.655124 +0200,
./images_beh/Sphere_Ref_BG-grey_stim-white.png,0,117,117,117,120.41469209903153,,,,,,,,,,120.36801030102652,120.43131489603547,120.43131489603547,121.18370891798986,121.18370891798986,121.36542337399442,['space'],0,0.7761960190255195,None,,,sub-003,ses-main-base-l-1,run-1,grey,2024-04-25_13h57.35.495,VDT,2023.2.3,120.46514380750689,2024-04-25 13h57.57.655124 +0200,
./images_beh/Sphere_CW-1.5_BG-grey_stim-white.png,0,118,118,118,121.40638800401939,,,,,,,,,,121.36606962000951,121.4309837250039,121.4309837250039,122.18378139403649,122.17641886603087,122.42905562702799,None,0,,,122.428583911038,122.428583911038,sub-003,ses-main-base-l-1,run-1,grey,2024-04-25_13h57.35.495,VDT,2023.2.3,120.46514380750689,2024-04-25 13h57.57.655124 +0200,
./images_beh/Sphere_CCW-1.5_BG-grey_stim-white.png,0,119,119,119,122.4623510070378,,,,,,,,,,122.42936355102574,122.4623510070378,122.4623510070378,123.18305966700427,123.21091924799839,123.39481942099519,None,0,,,,,sub-003,ses-main-base-l-1,run-1,grey,2024-04-25_13h57.35.495,VDT,2023.2.3,120.46514380750689,2024-04-25 13h57.57.655124 +0200,
./images_beh/Sphere_CW-1.5_BG-grey_stim-white.png,0,120,120,120,123.44250477501191,,,,,,,,,,123.39553640101803,123.44250477501191,123.44250477501191,124.18274373700842,124.19056819099933,124.3921562480391,['space'],0,0.5670686619705521,None,,,sub-003,ses-main-base-l-1,run-1,grey,2024-04-25_13h57.35.495,VDT,2023.2.3,120.46514380750689,2024-04-25 13h57.57.655124 +0200,
./images_beh/Sphere_CCW-1.5_BG-grey_stim-white.png,0,121,121,121,124.43983135704184,,,,,,,,,,124.39326657302445,124.43983135704184,124.43983135704184,125.19311746099265,125.19311746099265,125.40788719302509,None,0,,,,,sub-003,ses-main-base-l-1,run-1,grey,2024-04-25_13h57.35.495,VDT,2023.2.3,120.46514380750689,2024-04-25 13h57.57.655124 +0200,
./images_beh/Sphere_CCW-1.5_BG-grey_stim-white.png,0,122,122,122,125.45753636304289,,,,,,,,,,125.40877318399725,125.45753636304289,125.45753636304289,126.18193402304314,126.20660256204428,126.39114015799714,None,0,,,,,sub-003,ses-main-base-l-1,run-1,grey,2024-04-25_13h57.35.495,VDT,2023.2.3,120.46514380750689,2024-04-25 13h57.57.655124 +0200,
./images_beh/Sphere_Ref_BG-grey_stim-white.png,0,123,123,123,126.43587216601009,,,,,,,,,,126.39193119399715,126.43587216601009,126.43587216601009,127.1802856560098,127.1802856560098,127.39061125001172,None,0,,,,,sub-003,ses-main-base-l-1,run-1,grey,2024-04-25_13h57.35.495,VDT,2023.2.3,120.46514380750689,2024-04-25 13h57.57.655124 +0200,
./images_beh/Sphere_CCW-1.5_BG-grey_stim-white.png,0,124,124,124,127.43222789803986,,,,,,,,,,127.3915533630061,127.43222789803986,127.43222789803986,128.17933725903276,128.17933725903276,128.40645680204034,['space'],0,0.42483243299648166,None,,,sub-003,ses-main-base-l-1,run-1,grey,2024-04-25_13h57.35.495,VDT,2023.2.3,120.46514380750689,2024-04-25 13h57.57.655124 +0200,
./images_beh/Sphere_CW-1.5_BG-grey_stim-white.png,0,125,125,125,128.45591375004733,,,,,,,,,,128.4078742720303,128.45591375004733,128.45591375004733,129.18771894701058,129.20424425404053,129.41256917000283,['space'],0,0.704066612990573,None,,,sub-003,ses-main-base-l-1,run-1,grey,2024-04-25_13h57.35.495,VDT,2023.2.3,120.46514380750689,2024-04-25 13h57.57.655124 +0200,
./images_beh/Sphere_CCW-1.5_BG-grey_stim-white.png,0,126,126,126,129.46185883303406,,,,,,,,,,129.41351045004558,129.46185883303406,129.46185883303406,130.18995395599632,130.21181761403568,130.41256513702683,None,0,,,,,sub-003,ses-main-base-l-1,run-1,grey,2024-04-25_13h57.35.495,VDT,2023.2.3,120.46514380750689,2024-04-25 13h57.57.655124 +0200,
./images_beh/Sphere_CW-1.5_BG-grey_stim-white.png,0,127,127,127,130.45774760702625,,,,,,,,,,130.41329415503424,130.45774760702625,130.45774760702625,131.18749664200004,131.20388914999785,131.39046423201216,None,0,,,,,sub-003,ses-main-base-l-1,run-1,grey,2024-04-25_13h57.35.495,VDT,2023.2.3,120.46514380750689,2024-04-25 13h57.57.655124 +0200,
./images_beh/Sphere_CW-1.5_BG-grey_stim-white.png,0,128,128,128,131.4402481400175,,,,,,,,,,131.39129545801552,131.4402481400175,131.4402481400175,132.19010251102736,132.19010251102736,132.39462266804185,None,0,,,,,sub-003,ses-main-base-l-1,run-1,grey,2024-04-25_13h57.35.495,VDT,2023.2.3,120.46514380750689,2024-04-25 13h57.57.655124 +0200,
./images_beh/Sphere_Ref_BG-grey_stim-white.png,0,129,129,129,132.43835413904162,,,,,,,,,,132.39547160000075,132.43835413904162,132.43835413904162,133.18638019700302,133.18638019700302,133.39005267299945,['space'],0,0.6414968019817024,None,,,sub-003,ses-main-base-l-1,run-1,grey,2024-04-25_13h57.35.495,VDT,2023.2.3,120.46514380750689,2024-04-25 13h57.57.655124 +0200,
./images_beh/Sphere_CCW-1.5_BG-grey_stim-white.png,0,130,130,130,133.43910358502762,,,,,,,,,,133.39119847299298,133.43910358502762,133.43910358502762,134.185529866023,134.185529866023,134.39254932902986,None,0,,,,,sub-003,ses-main-base-l-1,run-1,grey,2024-04-25_13h57.35.495,VDT,2023.2.3,120.46514380750689,2024-04-25 13h57.57.655124 +0200,
./images_beh/Sphere_CCW-1.5_BG-grey_stim-white.png,0,131,131,131,134.43624944600742,,,,,,,,,,134.39314080402255,134.43624944600742,134.43624944600742,135.18792125000618,135.17469420999987,135.38647987303557,None,0,,,,,sub-003,ses-main-base-l-1,run-1,grey,2024-04-25_13h57.35.495,VDT,2023.2.3,120.46514380750689,2024-04-25 13h57.57.655124 +0200,
./images_beh/Sphere_CW-1.5_BG-grey_stim-white.png,0,132,132,132,135.4304463250446,,,,,,,,,,135.38750821200665,135.43661246699048,135.43661246699048,136.18464434199268,136.18464434199268,136.35874291602522,None,0,,,,,sub-003,ses-main-base-l-1,run-1,grey,2024-04-25_13h57.35.495,VDT,2023.2.3,120.46514380750689,2024-04-25 13h57.57.655124 +0200,
./images_beh/Sphere_CW-1.5_BG-grey_stim-white.png,0,133,133,133,136.4020477909944,,,,,,,,,,136.35932739800774,136.43447214900516,136.43447214900516,137.2011625150335,137.1869420009898,137.42096189700533,None,0,,,,,sub-003,ses-main-base-l-1,run-1,grey,2024-04-25_13h57.35.495,VDT,2023.2.3,120.46514380750689,2024-04-25 13h57.57.655124 +0200,
./images_beh/Sphere_Ref_BG-grey_stim-white.png,0,134,134,134,137.46908761002123,,,,,,,,,,137.4216810039943,137.46908761002123,137.46908761002123,138.1927059990121,138.2196321359952,138.4012803719961,None,0,,,,,sub-003,ses-main-base-l-1,run-1,grey,2024-04-25_13h57.35.495,VDT,2023.2.3,120.46514380750689,2024-04-25 13h57.57.655124 +0200,
./images_beh/Sphere_CW-1.5_BG-grey_stim-white.png,0,135,135,135,138.44700493803248,,,,,,,,,,138.40190938301384,138.44700493803248,138.44700493803248,139.1894114970346,139.1894114970346,139.3899811450392,['space'],0,0.7209225590340793,None,,,sub-003,ses-main-base-l-1,run-1,grey,2024-04-25_13h57.35.495,VDT,2023.2.3,120.46514380750689,2024-04-25 13h57.57.655124 +0200,
./images_beh/Sphere_CCW-1.5_BG-grey_stim-white.png,0,136,136,136,139.43437387701124,,,,,,,,,,139.391020768031,139.43437387701124,139.43437387701124,140.18299671501154,140.18299671501154,140.40755132603226,None,0,,,,,sub-003,ses-main-base-l-1,run-1,grey,2024-04-25_13h57.35.495,VDT,2023.2.3,120.46514380750689,2024-04-25 13h57.57.655124 +0200,
./images_beh/Sphere_Ref_BG-grey_stim-white.png,0,137,137,137,140.4550916220178,,,,,,,,,,140.4082715359982,140.4550916220178,140.4550916220178,141.18243888602592,141.20175388804637,141.43980507401284,None,0,,,141.43255663802847,,sub-003,ses-main-base-l-1,run-1,grey,2024-04-25_13h57.35.495,VDT,2023.2.3,120.46514380750689,2024-04-25 13h57.57.655124 +0200,
./images_beh/Sphere_CW-1.5_BG-grey_stim-white.png,0,138,138,138,141.49007258901838,,,,,,,,,,141.4408343390096,141.49007258901838,141.49007258901838,142.18183126603253,142.23395096103195,142.3898537850473,None,0,,,,,sub-003,ses-main-base-l-1,run-1,grey,2024-04-25_13h57.35.495,VDT,2023.2.3,120.46514380750689,2024-04-25 13h57.57.655124 +0200,
./images_beh/Sphere_CCW-1.5_BG-grey_stim-white.png,0,139,139,139,142.4367764100316,,,,,,,,,,142.39081774000078,142.4367764100316,142.4367764100316,143.18856013700133,143.18856013700133,143.4489733230439,None,0,,,143.44794523203745,143.44794523203745,sub-003,ses-main-base-l-1,run-1,grey,2024-04-25_13h57.35.495,VDT,2023.2.3,120.46514380750689,2024-04-25 13h57.57.655124 +0200,
./images_beh/Sphere_Ref_BG-grey_stim-white.png,0,140,140,140,143.49671891803155,,,,,,,,,,143.4500438380055,143.49671891803155,143.49671891803155,144.1888294730452,144.23718488699524,144.38192577799782,None,0,,,,,sub-003,ses-main-base-l-1,run-1,grey,2024-04-25_13h57.35.495,VDT,2023.2.3,120.46514380750689,2024-04-25 13h57.57.655124 +0200,
./images_beh/Sphere_CCW-1.5_BG-grey_stim-white.png,0,141,141,141,144.4267156580463,,,,,,,,,,144.38275506999344,144.43272628303384,144.43272628303384,145.18737812602194,145.1803100380348,145.38692429102957,None,0,,,,,sub-003,ses-main-base-l-1,run-1,grey,2024-04-25_13h57.35.495,VDT,2023.2.3,120.46514380750689,2024-04-25 13h57.57.655124 +0200,
./images_beh/Sphere_CCW-1.5_BG-grey_stim-white.png,0,142,142,142,145.4299258700339,,,,,,,,,,145.38752625504276,145.4354872140102,145.4354872140102,146.18708451400744,146.1801362800179,146.39743333903607,None,0,,,,,sub-003,ses-main-base-l-1,run-1,grey,2024-04-25_13h57.35.495,VDT,2023.2.3,120.46514380750689,2024-04-25 13h57.57.655124 +0200,
./images_beh/Sphere_CW-1.5_BG-grey_stim-white.png,0,143,143,143,146.44517711404478,,,,,,,,,,146.39850193500752,146.44517711404478,146.44517711404478,147.18580958404345,147.18580958404345,147.3852307900088,None,0,,,,,sub-003,ses-main-base-l-1,run-1,grey,2024-04-25_13h57.35.495,VDT,2023.2.3,120.46514380750689,2024-04-25 13h57.57.655124 +0200,
./images_beh/Sphere_CW-1.5_BG-grey_stim-white.png,0,144,144,144,147.4271216810448,,,,,,,,,,147.38584121700842,147.4324660860002,147.4324660860002,148.18411969800945,148.17805834201863,148.39629206701647,None,0,,,,,sub-003,ses-main-base-l-1,run-1,grey,2024-04-25_13h57.35.495,VDT,2023.2.3,120.46514380750689,2024-04-25 13h57.57.655124 +0200,
./images_beh/Sphere_CCW-1.5_BG-grey_stim-white.png,0,145,145,145,148.4466413850314,,,,,,,,,,148.3971896910225,148.4466413850314,148.4466413850314,149.19454912404763,149.19454912404763,149.42917205399135,None,0,,,,,sub-003,ses-main-base-l-1,run-1,grey,2024-04-25_13h57.35.495,VDT,2023.2.3,120.46514380750689,2024-04-25 13h57.57.655124 +0200,
./images_beh/Sphere_CCW-1.5_BG-grey_stim-white.png,0,146,146,146,149.47213029500563,,,,,,,,,,149.43034195899963,149.47213029500563,149.47213029500563,150.1849504589918,150.21769797499292,150.36191808700096,None,0,,,,,sub-003,ses-main-base-l-1,run-1,grey,2024-04-25_13h57.35.495,VDT,2023.2.3,120.46514380750689,2024-04-25 13h57.57.655124 +0200,
./images_beh/Sphere_Ref_BG-grey_stim-white.png,0,147,147,147,150.40756523504388,,,,,,,,,,150.36295094399247,150.43263288302114,150.43263288302114,151.1844110660022,151.17719910800224,151.35104642104125,None,0,,,,,sub-003,ses-main-base-l-1,run-1,grey,2024-04-25_13h57.35.495,VDT,2023.2.3,120.46514380750689,2024-04-25 13h57.57.655124 +0200,
./images_beh/Sphere_CW-1.5_BG-grey_stim-white.png,0,148,148,148,151.3977509069955,,,,,,,,,,151.3517676620395,151.43388753704494,151.43388753704494,152.18282922904473,152.18282922904473,152.39397658704547,None,0,,,,,sub-003,ses-main-base-l-1,run-1,grey,2024-04-25_13h57.35.495,VDT,2023.2.3,120.46514380750689,2024-04-25 13h57.57.655124 +0200,
./images_beh/Sphere_CW-1.5_BG-grey_stim-white.png,0,149,149,149,152.43771960400045,,,,,,,,,,152.39475133200176,152.43771960400045,152.43771960400045,153.1831800560467,153.1831800560467,153.38333973602857,None,0,,,,,sub-003,ses-main-base-l-1,run-1,grey,2024-04-25_13h57.35.495,VDT,2023.2.3,120.46514380750689,2024-04-25 13h57.57.655124 +0200,
./images_beh/Sphere_Ref_BG-grey_stim-white.png,0,150,150,150,153.42656736902427,,,,,,,,,,153.38393827003893,153.4314968379913,153.4314968379913,154.1827715190011,154.17576367000584,154.37832000502385,None,0,,,,,sub-003,ses-main-base-l-1,run-1,grey,2024-04-25_13h57.35.495,VDT,2023.2.3,120.46514380750689,2024-04-25 13h57.57.655124 +0200,
./images_beh/Sphere_CW-1.5_BG-grey_stim-white.png,0,151,151,151,154.42322942701867,,,,,,,,,,154.37904457602417,154.42942165402928,154.42942165402928,155.18340618000366,155.18340618000366,155.41609178599901,None,0,,,,,sub-003,ses-main-base-l-1,run-1,grey,2024-04-25_13h57.35.495,VDT,2023.2.3,120.46514380750689,2024-04-25 13h57.57.655124 +0200,
./images_beh/Sphere_CW-1.5_BG-grey_stim-white.png,0,152,152,152,155.46005017700372,,,,,,,,,,155.41667155601317,155.46005017700372,155.46005017700372,156.19388536800398,156.20854247402167,156.44307071203366,None,0,,,156.44180038699415,,sub-003,ses-main-base-l-1,run-1,grey,2024-04-25_13h57.35.495,VDT,2023.2.3,120.46514380750689,2024-04-25 13h57.57.655124 +0200,
./images_beh/Sphere_Ref_BG-grey_stim-white.png,0,153,153,153,156.4883976780111,,,,,,,,,,156.44384562701453,156.4883976780111,156.4883976780111,157.18283432302997,157.22961985704023,157.39224598300643,['space'],0,0.5108307069749571,None,,,sub-003,ses-main-base-l-1,run-1,grey,2024-04-25_13h57.35.495,VDT,2023.2.3,120.46514380750689,2024-04-25 13h57.57.655124 +0200,
./images_beh/Sphere_CW-1.5_BG-grey_stim-white.png,0,154,154,154,157.4422474700259,,,,,,,,,,157.39322637300938,157.4422474700259,157.4422474700259,158.1932525759912,158.1932525759912,158.4270601469907,None,0,,,,,sub-003,ses-main-base-l-1,run-1,grey,2024-04-25_13h57.35.495,VDT,2023.2.3,120.46514380750689,2024-04-25 13h57.57.655124 +0200,
./images_beh/Sphere_CCW-1.5_BG-grey_stim-white.png,0,155,155,155,158.47514439199585,,,,,,,,,,158.42783040902577,158.47514439199585,158.47514439199585,159.19252835900988,159.2228779650177,159.3411816720036,None,0,,,,,sub-003,ses-main-base-l-1,run-1,grey,2024-04-25_13h57.35.495,VDT,2023.2.3,120.46514380750689,2024-04-25 13h57.57.655124 +0200,
./images_beh/Sphere_CCW-1.5_BG-grey_stim-white.png,0,156,156,156,159.38802826602478,,,,,,,,,,159.3419112120173,159.4302989290445,159.4302989290445,160.1805518240435,160.17304437502753,160.42925304500386,None,0,,,160.4225924750208,160.4225924750208,sub-003,ses-main-base-l-1,run-1,grey,2024-04-25_13h57.35.495,VDT,2023.2.3,120.46514380750689,2024-04-25 13h57.57.655124 +0200,
./images_beh/Sphere_CCW-1.5_BG-grey_stim-white.png,0,157,157,157,160.47435390902683,,,,,,,,,,160.43000306899194,160.47435390902683,160.47435390902683,161.18100447201869,161.22219096502522,161.3968345010071,None,0,,,,,sub-003,ses-main-base-l-1,run-1,grey,2024-04-25_13h57.35.495,VDT,2023.2.3,120.46514380750689,2024-04-25 13h57.57.655124 +0200,
./images_beh/Sphere_CCW-1.5_BG-grey_stim-white.png,0,158,158,158,161.4457867250312,,,,,,,,,,161.39754950703355,161.4457867250312,161.4457867250312,162.18810433900217,162.19490180100547,162.3560381430434,None,0,,,,,sub-003,ses-main-base-l-1,run-1,grey,2024-04-25_13h57.35.495,VDT,2023.2.3,120.46514380750689,2024-04-25 13h57.57.655124 +0200,
./images_beh/Sphere_Ref_BG-grey_stim-white.png,0,159,159,159,162.40026163804578,,,,,,,,,,162.35729454504326,162.42892820504494,162.42892820504494,163.18747589102713,163.17707273201086,163.4552395530045,['space'],0,0.6277735189651139,None,163.42574440099997,163.42080280004302,sub-003,ses-main-base-l-1,run-1,grey,2024-04-25_13h57.35.495,VDT,2023.2.3,120.46514380750689,2024-04-25 13h57.57.655124 +0200,
./images_beh/Sphere_CW-1.5_BG-grey_stim-white.png,0,160,160,160,163.4975651720306,,,,,,,,,,163.45626883604564,163.4975651720306,163.4975651720306,164.189848006994,164.2448729480384,164.3886046090047,None,0,,,,,sub-003,ses-main-base-l-1,run-1,grey,2024-04-25_13h57.35.495,VDT,2023.2.3,120.46514380750689,2024-04-25 13h57.57.655124 +0200,
./images_beh/Sphere_CCW-1.5_BG-grey_stim-white.png,0,161,161,161,164.429611871019,,,,,,,,,,164.38946869404754,164.43607595202047,164.43607595202047,165.18696747004287,165.1757858080091,165.40430083102547,None,0,,,,,sub-003,ses-main-base-l-1,run-1,grey,2024-04-25_13h57.35.495,VDT,2023.2.3,120.46514380750689,2024-04-25 13h57.57.655124 +0200,
./images_beh/Sphere_CCW-1.5_BG-grey_stim-white.png,0,162,162,162,165.45443288603565,,,,,,,,,,165.40551380900433,165.45443288603565,165.45443288603565,166.1871748029953,166.1939524789923,166.37099025800126,None,0,,,,,sub-003,ses-main-base-l-1,run-1,grey,2024-04-25_13h57.35.495,VDT,2023.2.3,120.46514380750689,2024-04-25 13h57.57.655124 +0200,
./images_beh/Sphere_CCW-1.5_BG-grey_stim-white.png,0,163,163,163,166.41792375402292,,,,,,,,,,166.37176391499816,166.435897693038,166.435897693038,167.19390213803854,167.18577612400986,167.40326880902285,None,0,,,,,sub-003,ses-main-base-l-1,run-1,grey,2024-04-25_13h57.35.495,VDT,2023.2.3,120.46514380750689,2024-04-25 13h57.57.655124 +0200,
./images_beh/Sphere_Ref_BG-grey_stim-white.png,0,164,164,164,167.44675983203342,,,,,,,,,,167.40432297001826,167.44675983203342,167.44675983203342,168.19314633100294,168.19314633100294,168.4022206600057,['space'],0,0.7694342669565231,None,,,sub-003,ses-main-base-l-1,run-1,grey,2024-04-25_13h57.35.495,VDT,2023.2.3,120.46514380750689,2024-04-25 13h57.57.655124 +0200,
./images_beh/Sphere_CCW-1.5_BG-grey_stim-white.png,0,165,165,165,168.44108422502177,,,,,,,,,,168.40300927503267,168.44108422502177,168.44108422502177,169.20445024501532,169.20445024501532,169.352903083025,None,0,,,,,sub-003,ses-main-base-l-1,run-1,grey,2024-04-25_13h57.35.495,VDT,2023.2.3,120.46514380750689,2024-04-25 13h57.57.655124 +0200,
./images_beh/Sphere_CW-1.5_BG-grey_stim-white.png,0,166,166,166,169.39863017800963,,,,,,,,,,169.35382606904022,169.45387449703412,169.45387449703412,170.18435256602243,170.20152116101235,170.43803926499095,None,0,,,170.4234675480402,,sub-003,ses-main-base-l-1,run-1,grey,2024-04-25_13h57.35.495,VDT,2023.2.3,120.46514380750689,2024-04-25 13h57.57.655124 +0200,
./images_beh/Sphere_Ref_BG-grey_stim-white.png,0,167,167,167,170.48743196803844,,,,,,,,,,170.43875316804042,170.48743196803844,170.48743196803844,171.18352424702607,171.24001774803037,171.4345526029938,['space'],0,0.35249064897652715,None,171.42259187600575,,sub-003,ses-main-base-l-1,run-1,grey,2024-04-25_13h57.35.495,VDT,2023.2.3,120.46514380750689,2024-04-25 13h57.57.655124 +0200,
./images_beh/Sphere_CCW-1.5_BG-grey_stim-white.png,0,168,168,168,171.47993818903342,,,,,,,,,,171.43577089102473,171.47993818903342,171.47993818903342,172.1862805520068,172.22277038404718,172.38455338100903,None,0,,,,,sub-003,ses-main-base-l-1,run-1,grey,2024-04-25_13h57.35.495,VDT,2023.2.3,120.46514380750689,2024-04-25 13h57.57.655124 +0200,
./images_beh/Sphere_CW-1.5_BG-grey_stim-white.png,0,169,169,169,172.43087482103147,,,,,,,,,,172.38530952704605,172.43661210301798,172.43661210301798,173.18256574304542,173.18256574304542,173.37382728903322,['space'],0,0.6437871259986423,None,,,sub-003,ses-main-base-l-1,run-1,grey,2024-04-25_13h57.35.495,VDT,2023.2.3,120.46514380750689,2024-04-25 13h57.57.655124 +0200,
./images_beh/Sphere_Ref_BG-grey_stim-white.png,0,170,170,170,173.4198107609991,,,,,,,,,,173.37478693400044,173.4379688280169,173.4379688280169,174.1873343680054,174.1873343680054,174.41968727001222,None,0,,,,,sub-003,ses-main-base-l-1,run-1,grey,2024-04-25_13h57.35.495,VDT,2023.2.3,120.46514380750689,2024-04-25 13h57.57.655124 +0200,
./images_beh/Sphere_CCW-1.5_BG-grey_stim-white.png,0,171,171,171,174.4673022190109,,,,,,,,,,174.42041044303915,174.4673022190109,174.4673022190109,175.19040310301352,175.21735023503425,175.4317963460344,['space'],0,0.0754265800351277,None,,,sub-003,ses-main-base-l-1,run-1,grey,2024-04-25_13h57.35.495,VDT,2023.2.3,120.46514380750689,2024-04-25 13h57.57.655124 +0200,
./images_beh/Sphere_CW-1.5_BG-grey_stim-white.png,0,172,172,172,175.46665553603088,,,,,,,,,,175.43269137304742,175.46665553603088,175.46665553603088,176.1891529679997,176.2152549159946,176.3482068630401,['space'],0,0.7254288360127248,None,,,sub-003,ses-main-base-l-1,run-1,grey,2024-04-25_13h57.35.495,VDT,2023.2.3,120.46514380750689,2024-04-25 13h57.57.655124 +0200,
./images_beh/Sphere_CW-1.5_BG-grey_stim-white.png,0,173,173,173,176.38254038000014,,,,,,,,,,176.34941553103272,176.4475329820416,176.4475329820416,177.18750929203816,177.18750929203816,177.40453429199988,None,0,,,,,sub-003,ses-main-base-l-1,run-1,grey,2024-04-25_13h57.35.495,VDT,2023.2.3,120.46514380750689,2024-04-25 13h57.57.655124 +0200,
./images_beh/Sphere_CW-1.5_BG-grey_stim-white.png,0,174,174,174,177.44895839202218,,,,,,,,,,177.40511814603815,177.44895839202218,177.44895839202218,178.18567349604564,178.19609603699064,178.36684488499304,None,0,,,,,sub-003,ses-main-base-l-1,run-1,grey,2024-04-25_13h57.35.495,VDT,2023.2.3,120.46514380750689,2024-04-25 13h57.57.655124 +0200,
./images_beh/Sphere_Ref_BG-grey_stim-white.png,0,175,175,175,178.41412316000788,,,,,,,,,,178.36757055699127,178.43578220903873,178.43578220903873,179.1867215890088,179.17965320899384,179.38044790603453,None,0,,,,,sub-003,ses-main-base-l-1,run-1,grey,2024-04-25_13h57.35.495,VDT,2023.2.3,120.46514380750689,2024-04-25 13h57.57.655124 +0200,
./images_beh/Sphere_CCW-1.5_BG-grey_stim-white.png,0,176,176,176,179.4242788440315,,,,,,,,,,179.3812218940002,179.4298556020367,179.4298556020367,180.18663878302323,180.16822686704108,180.3961793180206,None,0,,,,,sub-003,ses-main-base-l-1,run-1,grey,2024-04-25_13h57.35.495,VDT,2023.2.3,120.46514380750689,2024-04-25 13h57.57.655124 +0200,
./images_beh/Sphere_CW-1.5_BG-grey_stim-white.png,0,177,177,177,180.43998824700247,,,,,,,,,,180.397104711039,180.43998824700247,180.43998824700247,181.1850844110013,181.1850844110013,181.38561773102265,None,0,,,,,sub-003,ses-main-base-l-1,run-1,grey,2024-04-25_13h57.35.495,VDT,2023.2.3,120.46514380750689,2024-04-25 13h57.57.655124 +0200,
./images_beh/Sphere_CW-1.5_BG-grey_stim-white.png,0,178,178,178,181.42626810999354,,,,,,,,,,181.38619753799867,181.43136676301947,181.43136676301947,182.18539584201062,182.17842498898972,182.36816537304549,None,0,,,,,sub-003,ses-main-base-l-1,run-1,grey,2024-04-25_13h57.35.495,VDT,2023.2.3,120.46514380750689,2024-04-25 13h57.57.655124 +0200,
./images_beh/Sphere_CCW-1.5_BG-grey_stim-white.png,0,179,179,179,182.41298799903598,,,,,,,,,,182.36874811700545,182.4329669320141,182.4329669320141,183.18431319802767,183.177528419008,183.39476770802867,None,0,,,,,sub-003,ses-main-base-l-1,run-1,grey,2024-04-25_13h57.35.495,VDT,2023.2.3,120.46514380750689,2024-04-25 13h57.57.655124 +0200,
./images_beh/Sphere_CW-1.5_BG-grey_stim-white.png,0,180,180,180,183.43730232899543,,,,,,,,,,183.39575314999092,183.43730232899543,183.43730232899543,184.18324845802272,184.18324845802272,184.36226175999036,None,0,,,,,sub-003,ses-main-base-l-1,run-1,grey,2024-04-25_13h57.35.495,VDT,2023.2.3,120.46514380750689,2024-04-25 13h57.57.655124 +0200,
./images_beh/Sphere_CCW-1.5_BG-grey_stim-white.png,0,181,181,181,184.40886186104035,,,,,,,,,,184.3630755750346,184.43264232802903,184.43264232802903,185.1828884150018,185.17632687004516,185.36691609304398,['space'],0,0.5127570349723101,None,,,sub-003,ses-main-base-l-1,run-1,grey,2024-04-25_13h57.35.495,VDT,2023.2.3,120.46514380750689,2024-04-25 13h57.57.655124 +0200,
./images_beh/Sphere_CCW-1.5_BG-grey_stim-white.png,0,182,182,182,185.4095448680455,,,,,,,,,,185.3676669879933,185.43114963901462,185.43114963901462,186.18240504001733,186.17588926904136,186.35993698204402,None,0,,,,,sub-003,ses-main-base-l-1,run-1,grey,2024-04-25_13h57.35.495,VDT,2023.2.3,120.46514380750689,2024-04-25 13h57.57.655124 +0200,
./images_beh/Sphere_CW-1.5_BG-grey_stim-white.png,0,183,183,183,186.40520586102502,,,,,,,,,,186.36101254302775,186.43070508301025,186.43070508301025,187.18362576002255,187.18362576002255,187.38354100001743,['space'],0,0.7135773590416647,None,,,sub-003,ses-main-base-l-1,run-1,grey,2024-04-25_13h57.35.495,VDT,2023.2.3,120.46514380750689,2024-04-25 13h57.57.655124 +0200,
./images_beh/Sphere_CW-1.5_BG-grey_stim-white.png,0,184,184,184,187.42642308800714,,,,,,,,,,187.38447464699857,187.44183549901936,187.44183549901936,188.19436000299174,188.19436000299174,188.47594267700333,None,0,,,188.44465359399328,188.44465359399328,sub-003,ses-main-base-l-1,run-1,grey,2024-04-25_13h57.35.495,VDT,2023.2.3,120.46514380750689,2024-04-25 13h57.57.655124 +0200,
./images_beh/Sphere_Ref_BG-grey_stim-white.png,0,185,185,185,188.5199579410255,,,,,,,,,,188.47683430602774,188.5199579410255,188.5199579410255,189.19401535502402,189.2772660740302,189.43212380900513,None,0,,,,,sub-003,ses-main-base-l-1,run-1,grey,2024-04-25_13h57.35.495,VDT,2023.2.3,120.46514380750689,2024-04-25 13h57.57.655124 +0200,
./images_beh/Sphere_CCW-1.5_BG-grey_stim-white.png,0,186,186,186,189.48069545003818,,,,,,,,,,189.43270624504657,189.48069545003818,189.48069545003818,190.19078080402687,190.2239923250163,190.41049972601468,['space'],0,0.38262718898477033,None,,,sub-003,ses-main-base-l-1,run-1,grey,2024-04-25_13h57.35.495,VDT,2023.2.3,120.46514380750689,2024-04-25 13h57.57.655124 +0200,
./images_beh/Sphere_CCW-1.5_BG-grey_stim-white.png,0,187,187,187,190.45897285401588,,,,,,,,,,190.41144269803772,190.45897285401588,190.45897285401588,191.18204165500356,191.20676870801253,191.36407700099517,None,0,,,,,sub-003,ses-main-base-l-1,run-1,grey,2024-04-25_13h57.35.495,VDT,2023.2.3,120.46514380750689,2024-04-25 13h57.57.655124 +0200,
./images_beh/Sphere_Ref_BG-grey_stim-white.png,0,188,188,188,191.40780514501967,,,,,,,,,,191.36480999202468,191.4291028220323,191.4291028220323,192.1788891640026,192.172816566017,192.39631210500374,['space'],0,0.7545514689991251,None,,,sub-003,ses-main-base-l-1,run-1,grey,2024-04-25_13h57.35.495,VDT,2023.2.3,120.46514380750689,2024-04-25 13h57.57.655124 +0200,
./images_beh/Sphere_CW-1.5_BG-grey_stim-white.png,0,189,189,189,192.43749934603693,,,,,,,,,,192.397269986046,192.43749934603693,192.43749934603693,193.1788779370254,193.1788779370254,193.42390460404567,None,0,,,193.4225373030058,,sub-003,ses-main-base-l-1,run-1,grey,2024-04-25_13h57.35.495,VDT,2023.2.3,120.46514380750689,2024-04-25 13h57.57.655124 +0200,
./images_beh/Sphere_CCW-1.5_BG-grey_stim-white.png,0,190,190,190,193.4727680250071,,,,,,,,,,193.42470673203934,193.4727680250071,193.4727680250071,194.17992144700838,194.22218886000337,194.38914985000156,None,0,,,,,sub-003,ses-main-base-l-1,run-1,grey,2024-04-25_13h57.35.495,VDT,2023.2.3,120.46514380750689,2024-04-25 13h57.57.655124 +0200,
./images_beh/Sphere_Ref_BG-grey_stim-white.png,0,191,191,191,194.4332498870208,,,,,,,,,,194.39012341300258,194.43831077503273,194.43831077503273,195.18846191000193,195.1763173660147,195.36182637599995,None,0,,,,,sub-003,ses-main-base-l-1,run-1,grey,2024-04-25_13h57.35.495,VDT,2023.2.3,120.46514380750689,2024-04-25 13h57.57.655124 +0200,
./images_beh/Sphere_CCW-1.5_BG-grey_stim-white.png,0,192,192,192,195.40177309303544,,,,,,,,,,195.36241764604347,195.4379374490236,195.4379374490236,196.18768731202,196.17670409899438,196.35497415601276,None,0,,,,,sub-003,ses-main-base-l-1,run-1,grey,2024-04-25_13h57.35.495,VDT,2023.2.3,120.46514380750689,2024-04-25 13h57.57.655124 +0200,
./images_beh/Sphere_CW-1.5_BG-grey_stim-white.png,0,193,193,193,196.3991490220069,,,,,,,,,,196.3558331800159,196.43727397703333,196.43727397703333,197.18685766903218,197.18685766903218,197.3708150110324,['space'],0,0.4742067949846387,None,,,sub-003,ses-main-base-l-1,run-1,grey,2024-04-25_13h57.35.495,VDT,2023.2.3,120.46514380750689,2024-04-25 13h57.57.655124 +0200,
./images_beh/Sphere_Ref_BG-grey_stim-white.png,0,194,194,194,197.41547108301893,,,,,,,,,,197.3719007660402,197.43631751299836,197.43631751299836,198.18642167601502,198.17634299903875,198.3947688289918,None,0,,,,,sub-003,ses-main-base-l-1,run-1,grey,2024-04-25_13h57.35.495,VDT,2023.2.3,120.46514380750689,2024-04-25 13h57.57.655124 +0200,
./images_beh/Sphere_CCW-1.5_BG-grey_stim-white.png,0,195,195,195,198.44311643502442,,,,,,,,,,198.39563976804493,198.44311643502442,198.44311643502442,199.19262427801732,199.19262427801732,199.40921023103874,None,0,,,,,sub-003,ses-main-base-l-1,run-1,grey,2024-04-25_13h57.35.495,VDT,2023.2.3,120.46514380750689,2024-04-25 13h57.57.655124 +0200,
./images_beh/Sphere_CW-1.5_BG-grey_stim-white.png,0,196,196,196,199.4488404080039,,,,,,,,,,199.4097952650045,199.4488404080039,199.4488404080039,200.18564284400782,200.19259912404232,200.436234376044,['space'],0,0.7585489010089077,None,200.4240597510361,,sub-003,ses-main-base-l-1,run-1,grey,2024-04-25_13h57.35.495,VDT,2023.2.3,120.46514380750689,2024-04-25 13h57.57.655124 +0200,
./images_beh/Sphere_CW-1.5_BG-grey_stim-white.png,0,197,197,197,200.48276624002028,,,,,,,,,,200.4377800319926,200.48276624002028,200.48276624002028,201.1850908389897,201.2246942120255,201.35911364399362,None,0,,,,,sub-003,ses-main-base-l-1,run-1,grey,2024-04-25_13h57.35.495,VDT,2023.2.3,120.46514380750689,2024-04-25 13h57.57.655124 +0200,
./images_beh/Sphere_CCW-1.5_BG-grey_stim-white.png,0,198,198,198,201.39793484599795,,,,,,,,,,201.35970344702946,201.43498179904418,201.43498179904418,202.1872041360475,202.17318634100957,202.38506327703362,None,0,,,,,sub-003,ses-main-base-l-1,run-1,grey,2024-04-25_13h57.35.495,VDT,2023.2.3,120.46514380750689,2024-04-25 13h57.57.655124 +0200,
./images_beh/Sphere_CW-1.5_BG-grey_stim-white.png,0,199,199,199,202.42937975900713,,,,,,,,,,202.3859418189968,202.4341302459943,202.4341302459943,203.18396339402534,203.1728060010355,203.36836010502884,None,0,,,,,sub-003,ses-main-base-l-1,run-1,grey,2024-04-25_13h57.35.495,VDT,2023.2.3,120.46514380750689,2024-04-25 13h57.57.655124 +0200,
./images_beh/Sphere_CCW-1.5_BG-grey_stim-white.png,0,200,200,200,203.41161730902968,,,,,,,,,,203.36913397803437,203.43947950704023,203.43947950704023,204.18343076203018,204.18343076203018,204.36774314503418,None,0,,,,,sub-003,ses-main-base-l-1,run-1,grey,2024-04-25_13h57.35.495,VDT,2023.2.3,120.46514380750689,2024-04-25 13h57.57.655124 +0200,
./images_beh/Sphere_CCW-1.5_BG-grey_stim-white.png,0,201,201,201,204.41151310800342,,,,,,,,,,204.36833784304326,204.4391725800233,204.4391725800233,205.18280703399796,205.18280703399796,205.37387635704363,None,0,,,,,sub-003,ses-main-base-l-1,run-1,grey,2024-04-25_13h57.35.495,VDT,2023.2.3,120.46514380750689,2024-04-25 13h57.57.655124 +0200,
./images_beh/Sphere_Ref_BG-grey_stim-white.png,0,202,202,202,205.42105493799318,,,,,,,,,,205.374596210022,205.43805521103786,205.43805521103786,206.18264304002514,206.18264304002514,206.38791833003052,['space'],0,0.8097251339931972,None,,,sub-003,ses-main-base-l-1,run-1,grey,2024-04-25_13h57.35.495,VDT,2023.2.3,120.46514380750689,2024-04-25 13h57.57.655124 +0200,
./images_beh/Sphere_CW-1.5_BG-grey_stim-white.png,0,203,203,203,206.42845177702839,,,,,,,,,,206.38858087401604,206.43452561902814,206.43452561902814,207.18904968100833,207.1821021810174,207.466419280041,None,0,,,207.4505630460335,207.4344884660095,sub-003,ses-main-base-l-1,run-1,grey,2024-04-25_13h57.35.495,VDT,2023.2.3,120.46514380750689,2024-04-25 13h57.57.655124 +0200,
./images_beh/Sphere_CW-1.5_BG-grey_stim-white.png,0,204,204,204,207.5120784100145,,,,,,,,,,207.4674345430103,207.5120784100145,207.5120784100145,208.1895102520357,208.25450935802655,208.38803146703867,None,0,,,,,sub-003,ses-main-base-l-1,run-1,grey,2024-04-25_13h57.35.495,VDT,2023.2.3,120.46514380750689,2024-04-25 13h57.57.655124 +0200,
./images_beh/Sphere_CW-1.5_BG-grey_stim-white.png,0,205,205,205,208.4319616780267,,,,,,,,,,208.38878710503923,208.43710990104591,208.43710990104591,209.18635082204128,209.18635082204128,209.38770022901008,['space'],0,0.6346662149881013,None,,,sub-003,ses-main-base-l-1,run-1,grey,2024-04-25_13h57.35.495,VDT,2023.2.3,120.46514380750689,2024-04-25 13h57.57.655124 +0200,
./images_beh/Sphere_Ref_BG-grey_stim-white.png,0,206,206,206,209.42961269704392,,,,,,,,,,209.3884078010451,209.43494867603295,209.43494867603295,210.18758640799206,210.18758640799206,210.34779257001355,None,0,,,,,sub-003,ses-main-base-l-1,run-1,grey,2024-04-25_13h57.35.495,VDT,2023.2.3,120.46514380750689,2024-04-25 13h57.57.655124 +0200,
./images_beh/Sphere_CCW-1.5_BG-grey_stim-white.png,0,207,207,207,210.39400174201,,,,,,,,,,210.34892121102894,210.43667455401737,210.43667455401737,211.18686362204608,211.18686362204608,211.4311399810249,None,0,,,211.4300457170466,211.4300457170466,sub-003,ses-main-base-l-1,run-1,grey,2024-04-25_13h57.35.495,VDT,2023.2.3,120.46514380750689,2024-04-25 13h57.57.655124 +0200,
./images_beh/Sphere_CW-1.5_BG-grey_stim-white.png,0,208,208,208,211.48089959699428,,,,,,,,,,211.43192128103692,211.48089959699428,211.48089959699428,212.18691684200894,212.22932911803946,212.430702860991,None,0,,,,,sub-003,ses-main-base-l-1,run-1,grey,2024-04-25_13h57.35.495,VDT,2023.2.3,120.46514380750689,2024-04-25 13h57.57.655124 +0200,
./images_beh/Sphere_Ref_BG-grey_stim-white.png,0,209,209,209,212.4775735370349,,,,,,,,,,212.43148445803672,212.4775735370349,212.4775735370349,213.18764062901028,213.21919466904365,213.37978948903037,None,0,,,,,sub-003,ses-main-base-l-1,run-1,grey,2024-04-25_13h57.35.495,VDT,2023.2.3,120.46514380750689,2024-04-25 13h57.57.655124 +0200,
./images_beh/Sphere_CCW-1.5_BG-grey_stim-white.png,0,210,210,210,213.42244298104197,,,,,,,,,,213.3805832400103,213.42794891202357,213.42794891202357,214.1848304750165,214.16700010601198,214.4123033840442,None,0,,,,,sub-003,ses-main-base-l-1,run-1,grey,2024-04-25_13h57.35.495,VDT,2023.2.3,120.46514380750689,2024-04-25 13h57.57.655124 +0200,
./images_beh/Sphere_CCW-1.5_BG-grey_stim-white.png,0,211,211,211,214.46062635199632,,,,,,,,,,214.4134599410463,214.46062635199632,214.46062635199632,215.18525282701012,215.20085954200476,215.3789575920091,None,0,,,,,sub-003,ses-main-base-l-1,run-1,grey,2024-04-25_13h57.35.495,VDT,2023.2.3,120.46514380750689,2024-04-25 13h57.57.655124 +0200,
./images_beh/Sphere_Ref_BG-grey_stim-white.png,0,212,212,212,215.42665429302724,,,,,,,,,,215.38004550803453,215.43227871001,215.43227871001,216.1834197480348,216.17713924200507,216.36642507102806,['space'],0,0.8078254659776576,None,,,sub-003,ses-main-base-l-1,run-1,grey,2024-04-25_13h57.35.495,VDT,2023.2.3,120.46514380750689,2024-04-25 13h57.57.655124 +0200,
./images_beh/Sphere_CW-1.5_BG-grey_stim-white.png,0,213,213,213,216.405287325033,,,,,,,,,,216.36699926503934,216.43205436499557,216.43205436499557,217.18407245201524,217.1769028819981,217.34994233300677,None,0,,,,,sub-003,ses-main-base-l-1,run-1,grey,2024-04-25_13h57.35.495,VDT,2023.2.3,120.46514380750689,2024-04-25 13h57.57.655124 +0200,
./images_beh/Sphere_CW-1.5_BG-grey_stim-white.png,0,214,214,214,217.3937998530455,,,,,,,,,,217.3506826700177,217.43382502201712,217.43382502201712,218.18341868103016,218.17617818602594,218.3670288940193,['space'],0,0.41347222396871075,None,,,sub-003,ses-main-base-l-1,run-1,grey,2024-04-25_13h57.35.495,VDT,2023.2.3,120.46514380750689,2024-04-25 13h57.57.655124 +0200,
./images_beh/Sphere_CCW-1.5_BG-grey_stim-white.png,0,215,215,215,218.4117681910284,,,,,,,,,,218.36787870601984,218.43202789704083,218.43202789704083,219.18250778404763,219.175801222038,219.37687027204083,None,0,,,,,sub-003,ses-main-base-l-1,run-1,grey,2024-04-25_13h57.35.495,VDT,2023.2.3,120.46514380750689,2024-04-25 13h57.57.655124 +0200,
./images_beh/Sphere_CW-1.5_BG-grey_stim-white.png,0,216,216,216,219.42449433600996,,,,,,,,,,219.37766266602557,219.430027918017,219.430027918017,220.1820770050399,220.17525954701705,220.4163488240447,None,0,,,,,sub-003,ses-main-base-l-1,run-1,grey,2024-04-25_13h57.35.495,VDT,2023.2.3,120.46514380750689,2024-04-25 13h57.57.655124 +0200,
./images_beh/Sphere_CW-1.5_BG-grey_stim-white.png,0,217,217,217,220.46359428903088,,,,,,,,,,220.41708782000933,220.46359428903088,220.46359428903088,221.18174164899392,221.2080044200411,221.37511940300465,['space'],0,0.5465151829994284,None,,,sub-003,ses-main-base-l-1,run-1,grey,2024-04-25_13h57.35.495,VDT,2023.2.3,120.46514380750689,2024-04-25 13h57.57.655124 +0200,
./images_beh/Sphere_CW-1.5_BG-grey_stim-white.png,0,218,218,218,221.41187825304223,,,,,,,,,,221.37626718502725,221.42981635202887,221.42981635202887,222.1815034180181,222.17447602603352,222.36107423203066,None,0,,,,,sub-003,ses-main-base-l-1,run-1,grey,2024-04-25_13h57.35.495,VDT,2023.2.3,120.46514380750689,2024-04-25 13h57.57.655124 +0200,
./images_beh/Sphere_Ref_BG-grey_stim-white.png,0,219,219,219,222.40966996503994,,,,,,,,,,222.36179857200477,222.43048563500633,222.43048563500633,223.17949630401563,223.1736700690235,223.42765904200496,None,0,,,,,sub-003,ses-main-base-l-1,run-1,grey,2024-04-25_13h57.35.495,VDT,2023.2.3,120.46514380750689,2024-04-25 13h57.57.655124 +0200,
./images_beh/Sphere_CCW-1.5_BG-grey_stim-white.png,0,220,220,220,223.4768179859966,,,,,,,,,,223.42837593704462,223.4768179859966,223.4768179859966,224.19229299604194,224.22361703199567,224.3430073140189,None,0,,,,,sub-003,ses-main-base-l-1,run-1,grey,2024-04-25_13h57.35.495,VDT,2023.2.3,120.46514380750689,2024-04-25 13h57.57.655124 +0200,
./images_beh/Sphere_CCW-1.5_BG-grey_stim-white.png,0,221,221,221,224.38650538300863,,,,,,,,,,224.34372827003244,224.43175506603438,224.43175506603438,225.19184261001647,225.19184261001647,225.35694919800153,None,0,,,,,sub-003,ses-main-base-l-1,run-1,grey,2024-04-25_13h57.35.495,VDT,2023.2.3,120.46514380750689,2024-04-25 13h57.57.655124 +0200,
./images_beh/Sphere_Ref_BG-grey_stim-white.png,0,222,222,222,225.40504375100136,,,,,,,,,,225.35810170299374,225.4283713560435,225.4283713560435,226.179770843999,226.179770843999,226.4069899180322,None,0,,,,,sub-003,ses-main-base-l-1,run-1,grey,2024-04-25_13h57.35.495,VDT,2023.2.3,120.46514380750689,2024-04-25 13h57.57.655124 +0200,
./images_beh/Sphere_CW-1.5_BG-grey_stim-white.png,0,223,223,223,226.45442967501003,,,,,,,,,,226.40775354899233,226.45442967501003,226.45442967501003,227.18003898701863,227.19573564903112,227.42323507700348,['space'],0,0.5374682809924707,None,,,sub-003,ses-main-base-l-1,run-1,grey,2024-04-25_13h57.35.495,VDT,2023.2.3,120.46514380750689,2024-04-25 13h57.57.655124 +0200,
./images_beh/Sphere_CW-1.5_BG-grey_stim-white.png,0,224,224,224,227.46797867200803,,,,,,,,,,227.42431765201036,227.46797867200803,227.46797867200803,228.1880881480174,228.21182749199215,228.37149388203397,['space'],0,0.8592355460277759,None,,,sub-003,ses-main-base-l-1,run-1,grey,2024-04-25_13h57.35.495,VDT,2023.2.3,120.46514380750689,2024-04-25 13h57.57.655124 +0200,
./images_beh/Sphere_CCW-1.5_BG-grey_stim-white.png,0,225,225,225,228.41408041503746,,,,,,,,,,228.3723201029934,228.43723153002793,228.43723153002793,229.18763029703405,229.17726640199544,229.35499758599326,None,0,,,,,sub-003,ses-main-base-l-1,run-1,grey,2024-04-25_13h57.35.495,VDT,2023.2.3,120.46514380750689,2024-04-25 13h57.57.655124 +0200,
./images_beh/Sphere_Ref_BG-grey_stim-white.png,0,226,226,226,229.39922620699508,,,,,,,,,,229.35614882904338,229.4395886050188,229.4395886050188,230.18722658400657,230.18722658400657,230.42113645601785,None,0,,,,,sub-003,ses-main-base-l-1,run-1,grey,2024-04-25_13h57.35.495,VDT,2023.2.3,120.46514380750689,2024-04-25 13h57.57.655124 +0200,
./images_beh/Sphere_CW-1.5_BG-grey_stim-white.png,0,227,227,227,230.4755260820384,,,,,,,,,,230.4218621189939,230.4755260820384,230.4755260820384,231.18609155603917,231.21967100602342,231.36122722004075,['space'],0,0.8459976430167444,None,,,sub-003,ses-main-base-l-1,run-1,grey,2024-04-25_13h57.35.495,VDT,2023.2.3,120.46514380750689,2024-04-25 13h57.57.655124 +0200,
./images_beh/Sphere_CCW-1.5_BG-grey_stim-white.png,0,228,228,228,231.39802428503754,,,,,,,,,,231.36214440403273,231.43604856799357,231.43604856799357,232.18830786604667,232.18830786604667,232.37039127503522,None,0,,,,,sub-003,ses-main-base-l-1,run-1,grey,2024-04-25_13h57.35.495,VDT,2023.2.3,120.46514380750689,2024-04-25 13h57.57.655124 +0200,
./images_beh/Sphere_CCW-1.5_BG-grey_stim-white.png,0,229,229,229,232.4176827900228,,,,,,,,,,232.37114067102084,232.4362689779955,232.4362689779955,233.18592619302217,233.17466852499638,233.40299531904748,None,0,,,,,sub-003,ses-main-base-l-1,run-1,grey,2024-04-25_13h57.35.495,VDT,2023.2.3,120.46514380750689,2024-04-25 13h57.57.655124 +0200,
./images_beh/Sphere_CCW-1.5_BG-grey_stim-white.png,0,230,230,230,233.4529850220424,,,,,,,,,,233.40652070904616,233.4529850220424,233.4529850220424,234.18498154904228,234.2014727180358,234.44139963999623,None,0,,,234.4236748800031,,sub-003,ses-main-base-l-1,run-1,grey,2024-04-25_13h57.35.495,VDT,2023.2.3,120.46514380750689,2024-04-25 13h57.57.655124 +0200,
./images_beh/Sphere_Ref_BG-grey_stim-white.png,0,231,231,231,234.48521539900685,,,,,,,,,,234.4423243930214,234.48521539900685,234.48521539900685,235.18430176802212,235.22390544699738,235.3677843080368,None,0,,,,,sub-003,ses-main-base-l-1,run-1,grey,2024-04-25_13h57.35.495,VDT,2023.2.3,120.46514380750689,2024-04-25 13h57.57.655124 +0200,
./images_beh/Sphere_CCW-1.5_BG-grey_stim-white.png,0,232,232,232,235.4166228620452,,,,,,,,,,235.36869649402797,235.44105853303336,235.44105853303336,236.1914053140208,236.1914053140208,236.3415016020299,None,0,,,,,sub-003,ses-main-base-l-1,run-1,grey,2024-04-25_13h57.35.495,VDT,2023.2.3,120.46514380750689,2024-04-25 13h57.57.655124 +0200,
./images_beh/Sphere_CW-1.5_BG-grey_stim-white.png,0,233,233,233,236.38722921104636,,,,,,,,,,236.34226550802123,236.440307358047,236.440307358047,237.18826023302972,237.18826023302972,237.38424367504194,['space'],0,0.6866826470359229,None,,,sub-003,ses-main-base-l-1,run-1,grey,2024-04-25_13h57.35.495,VDT,2023.2.3,120.46514380750689,2024-04-25 13h57.57.655124 +0200,
./images_beh/Sphere_CW-1.5_BG-grey_stim-white.png,0,234,234,234,237.432591210003,,,,,,,,,,237.38538955902914,237.43814982904587,237.43814982904587,238.1887712040334,238.1826620080392,238.41684410604648,None,0,,,,,sub-003,ses-main-base-l-1,run-1,grey,2024-04-25_13h57.35.495,VDT,2023.2.3,120.46514380750689,2024-04-25 13h57.57.655124 +0200,
./images_beh/Sphere_CCW-1.5_BG-grey_stim-white.png,0,235,235,235,238.4611636910122,,,,,,,,,,238.417958628037,238.4611636910122,238.4611636910122,239.18500191002386,239.21580322104273,239.38977767399047,None,0,,,,,sub-003,ses-main-base-l-1,run-1,grey,2024-04-25_13h57.35.495,VDT,2023.2.3,120.46514380750689,2024-04-25 13h57.57.655124 +0200,
./images_beh/Sphere_CW-1.5_BG-grey_stim-white.png,0,236,236,236,239.4287709670025,,,,,,,,,,239.39038963103667,239.4287709670025,239.4287709670025,240.1864714300027,240.168977680034,240.39956822799286,['space'],0,0.6670127600082196,None,,,sub-003,ses-main-base-l-1,run-1,grey,2024-04-25_13h57.35.495,VDT,2023.2.3,120.46514380750689,2024-04-25 13h57.57.655124 +0200,
./images_beh/Sphere_Ref_BG-grey_stim-white.png,0,237,237,237,240.44887405599002,,,,,,,,,,240.40058095904533,240.44887405599002,240.44887405599002,241.18840478704078,241.18840478704078,241.35624952299986,None,0,,,,,sub-003,ses-main-base-l-1,run-1,grey,2024-04-25_13h57.35.495,VDT,2023.2.3,120.46514380750689,2024-04-25 13h57.57.655124 +0200,
./images_beh/Sphere_CW-1.5_BG-grey_stim-white.png,0,238,238,238,241.40319195599295,,,,,,,,,,241.35696271399502,241.43808595999144,241.43808595999144,242.19771099300124,242.18353038403438,242.39877359603997,None,0,,,,,sub-003,ses-main-base-l-1,run-1,grey,2024-04-25_13h57.35.495,VDT,2023.2.3,120.46514380750689,2024-04-25 13h57.57.655124 +0200,
./images_beh/Sphere_CW-1.5_BG-grey_stim-white.png,0,239,239,239,242.4478204200277,,,,,,,,,,242.39976521104109,242.4478204200277,242.4478204200277,243.18544207699597,243.19618864299264,243.34671004704433,None,0,,,,,sub-003,ses-main-base-l-1,run-1,grey,2024-04-25_13h57.35.495,VDT,2023.2.3,120.46514380750689,2024-04-25 13h57.57.655124 +0200,
./images_beh/Sphere_CW-1.5_BG-grey_stim-white.png,0,240,240,240,243.38096707500517,,,,,,,,,,243.34734279703116,243.43554817402037,243.43554817402037,244.18686709203757,244.17973334901035,244.3862387840054,['space'],0,0.7567880019778386,None,,,sub-003,ses-main-base-l-1,run-1,grey,2024-04-25_13h57.35.495,VDT,2023.2.3,120.46514380750689,2024-04-25 13h57.57.655124 +0200,
./images_beh/Sphere_Ref_BG-grey_stim-white.png,0,241,241,241,244.42861755704507,,,,,,,,,,244.38719145202776,244.43382082803873,244.43382082803873,245.1863650540472,245.17930898902705,245.41349464800442,None,0,,,,,sub-003,ses-main-base-l-1,run-1,grey,2024-04-25_13h57.35.495,VDT,2023.2.3,120.46514380750689,2024-04-25 13h57.57.655124 +0200,
./images_beh/Sphere_CW-1.5_BG-grey_stim-white.png,0,242,242,242,245.4600986560108,,,,,,,,,,245.41425196599448,245.4600986560108,245.4600986560108,246.1867379079922,246.20188912498998,246.37933872401481,None,0,,,,,sub-003,ses-main-base-l-1,run-1,grey,2024-04-25_13h57.35.495,VDT,2023.2.3,120.46514380750689,2024-04-25 13h57.57.655124 +0200,
./images_beh/Sphere_CCW-1.5_BG-grey_stim-white.png,0,243,243,243,246.41992685804144,,,,,,,,,,246.38025610503973,246.43352726800367,246.43352726800367,247.1844809030299,247.1781862170319,247.40155986102764,None,0,,,,,sub-003,ses-main-base-l-1,run-1,grey,2024-04-25_13h57.35.495,VDT,2023.2.3,120.46514380750689,2024-04-25 13h57.57.655124 +0200,
./images_beh/Sphere_Ref_BG-grey_stim-white.png,0,244,244,244,247.44608136202442,,,,,,,,,,247.4021377430181,247.44608136202442,247.44608136202442,248.1856913579977,248.19429425202543,248.3846866840031,None,0,,,,,sub-003,ses-main-base-l-1,run-1,grey,2024-04-25_13h57.35.495,VDT,2023.2.3,120.46514380750689,2024-04-25 13h57.57.655124 +0200,
./images_beh/Sphere_CW-1.5_BG-grey_stim-white.png,0,245,245,245,248.42636405100347,,,,,,,,,,248.38546715403209,248.4318296140409,248.4318296140409,249.18408464599634,249.17723337502684,249.37817824602826,None,0,,,,,sub-003,ses-main-base-l-1,run-1,grey,2024-04-25_13h57.35.495,VDT,2023.2.3,120.46514380750689,2024-04-25 13h57.57.655124 +0200,
./images_beh/Sphere_CCW-1.5_BG-grey_stim-white.png,0,246,246,246,249.42398204799974,,,,,,,,,,249.3792939230334,249.44345274101943,249.44345274101943,250.18334117799532,250.18334117799532,250.41049901902443,None,0,,,,,sub-003,ses-main-base-l-1,run-1,grey,2024-04-25_13h57.35.495,VDT,2023.2.3,120.46514380750689,2024-04-25 13h57.57.655124 +0200,
./images_beh/Sphere_Ref_BG-grey_stim-white.png,0,247,247,247,250.45191470504506,,,,,,,,,,250.41129413899034,250.45191470504506,250.45191470504506,251.18375333299628,251.19991473603295,251.38251795602264,None,0,,,,,sub-003,ses-main-base-l-1,run-1,grey,2024-04-25_13h57.35.495,VDT,2023.2.3,120.46514380750689,2024-04-25 13h57.57.655124 +0200,
./images_beh/Sphere_CCW-1.5_BG-grey_stim-white.png,0,248,248,248,251.4227674099966,,,,,,,,,,251.38301003503148,251.44252831302583,251.44252831302583,252.18219456402585,252.18219456402585,252.3653341080062,None,0,,,,,sub-003,ses-main-base-l-1,run-1,grey,2024-04-25_13h57.35.495,VDT,2023.2.3,120.46514380750689,2024-04-25 13h57.57.655124 +0200,
./images_beh/Sphere_CCW-1.5_BG-grey_stim-white.png,0,249,249,249,252.40812132903375,,,,,,,,,,252.3659144960111,252.4306089100428,252.4306089100428,253.1812216200051,253.17490938398987,253.39922133501386,None,0,,,,,sub-003,ses-main-base-l-1,run-1,grey,2024-04-25_13h57.35.495,VDT,2023.2.3,120.46514380750689,2024-04-25 13h57.57.655124 +0200,
./images_beh/Sphere_CCW-1.5_BG-grey_stim-white.png,0,250,250,250,253.44738854601746,,,,,,,,,,253.39993073203368,253.44738854601746,253.44738854601746,254.1823691900354,254.19118564703967,254.42804770899238,None,0,,,,,sub-003,ses-main-base-l-1,run-1,grey,2024-04-25_13h57.35.495,VDT,2023.2.3,120.46514380750689,2024-04-25 13h57.57.655124 +0200,
./images_beh/Sphere_CCW-1.5_BG-grey_stim-white.png,0,251,251,251,254.4763149410137,,,,,,,,,,254.42883181001525,254.4763149410137,254.4763149410137,255.19412700802786,255.22749483102234,255.47480864904355,None,0,,,255.44355794001603,255.4738114720094,sub-003,ses-main-base-l-1,run-1,grey,2024-04-25_13h57.35.495,VDT,2023.2.3,120.46514380750689,2024-04-25 13h57.57.655124 +0200,
./images_beh/Sphere_CW-1.5_BG-grey_stim-white.png,0,252,252,252,255.51841399504337,,,,,,,,,,255.47601896501146,255.51841399504337,255.51841399504337,256.18181778799044,256.26281933602877,256.4104475360364,['space'],0,0.5702873620321043,None,,,sub-003,ses-main-base-l-1,run-1,grey,2024-04-25_13h57.35.495,VDT,2023.2.3,120.46514380750689,2024-04-25 13h57.57.655124 +0200,
./images_beh/Sphere_CCW-1.5_BG-grey_stim-white.png,0,253,253,253,256.45901847601635,,,,,,,,,,256.41137317504035,256.45901847601635,256.45901847601635,257.18068746401696,257.20648573699873,257.3811683059903,None,0,,,,,sub-003,ses-main-base-l-1,run-1,grey,2024-04-25_13h57.35.495,VDT,2023.2.3,120.46514380750689,2024-04-25 13h57.57.655124 +0200,
./images_beh/Sphere_CW-1.5_BG-grey_stim-white.png,0,254,254,254,257.4282783319941,,,,,,,,,,257.3819469769951,257.43939664802747,257.43939664802747,258.178459199029,258.178459199029,258.4070732720429,['space'],0,0.6800047590513714,None,,,sub-003,ses-main-base-l-1,run-1,grey,2024-04-25_13h57.35.495,VDT,2023.2.3,120.46514380750689,2024-04-25 13h57.57.655124 +0200,
./images_beh/Sphere_Ref_BG-grey_stim-white.png,0,255,255,255,258.4523931849981,,,,,,,,,,258.4079638830153,258.4523931849981,258.4523931849981,259.17978521902114,259.19537183002103,259.44044571201084,None,0,,,259.4280828690389,,sub-003,ses-main-base-l-1,run-1,grey,2024-04-25_13h57.35.495,VDT,2023.2.3,120.46514380750689,2024-04-25 13h57.57.655124 +0200,
./images_beh/Sphere_CCW-1.5_BG-grey_stim-white.png,0,256,256,256,259.4902555239969,,,,,,,,,,259.4411823099945,259.4902555239969,259.4902555239969,260.1879931440344,260.238348480023,260.3902127770125,None,0,,,,,sub-003,ses-main-base-l-1,run-1,grey,2024-04-25_13h57.35.495,VDT,2023.2.3,120.46514380750689,2024-04-25 13h57.57.655124 +0200,
./images_beh/Sphere_CCW-1.5_BG-grey_stim-white.png,0,257,257,257,260.437601172016,,,,,,,,,,260.390985334001,260.437601172016,260.437601172016,261.18779686500784,261.18779686500784,261.395894841,None,0,,,,,sub-003,ses-main-base-l-1,run-1,grey,2024-04-25_13h57.35.495,VDT,2023.2.3,120.46514380750689,2024-04-25 13h57.57.655124 +0200,
./images_beh/Sphere_CCW-1.5_BG-grey_stim-white.png,0,258,258,258,261.43948069401085,,,,,,,,,,261.39661898300983,261.43948069401085,261.43948069401085,262.187043226033,262.187043226033,262.3604402579949,None,0,,,,,sub-003,ses-main-base-l-1,run-1,grey,2024-04-25_13h57.35.495,VDT,2023.2.3,120.46514380750689,2024-04-25 13h57.57.655124 +0200,
./images_beh/Sphere_Ref_BG-grey_stim-white.png,0,259,259,259,262.40320806601085,,,,,,,,,,262.3609359060065,262.43703963502776,262.43703963502776,263.1894246850279,263.1894246850279,263.4042687990004,None,0,,,,,sub-003,ses-main-base-l-1,run-1,grey,2024-04-25_13h57.35.495,VDT,2023.2.3,120.46514380750689,2024-04-25 13h57.57.655124 +0200,
./images_beh/Sphere_CW-1.5_BG-grey_stim-white.png,0,260,260,260,263.4480601780233,,,,,,,,,,263.40533894702094,263.4480601780233,263.4480601780233,264.18616265803576,264.19331209902884,264.4375730929896,['space'],0,0.5116107179783285,None,264.42578544304706,,sub-003,ses-main-base-l-1,run-1,grey,2024-04-25_13h57.35.495,VDT,2023.2.3,120.46514380750689,2024-04-25 13h57.57.655124 +0200,
./images_beh/Sphere_CW-1.5_BG-grey_stim-white.png,0,261,261,261,264.48934355500387,,,,,,,,,,264.4434926690301,264.48934355500387,264.48934355500387,265.1886017610086,265.23594663804397,265.37822804402094,None,0,,,,,sub-003,ses-main-base-l-1,run-1,grey,2024-04-25_13h57.35.495,VDT,2023.2.3,120.46514380750689,2024-04-25 13h57.57.655124 +0200,
./images_beh/Sphere_CCW-1.5_BG-grey_stim-white.png,0,262,262,262,265.4259673280176,,,,,,,,,,265.3789506049943,265.4354575960315,265.4354575960315,266.1852867020061,266.1750791830127,266.3862058490049,None,0,,,,,sub-003,ses-main-base-l-1,run-1,grey,2024-04-25_13h57.35.495,VDT,2023.2.3,120.46514380750689,2024-04-25 13h57.57.655124 +0200,
./images_beh/Sphere_Ref_BG-grey_stim-white.png,0,263,263,263,266.4319946010364,,,,,,,,,,266.38740522100125,266.4515901739942,266.4515901739942,267.18476202501915,267.1916907840059,267.3857701829984,None,0,,,,,sub-003,ses-main-base-l-1,run-1,grey,2024-04-25_13h57.35.495,VDT,2023.2.3,120.46514380750689,2024-04-25 13h57.57.655124 +0200,
./images_beh/Sphere_CCW-1.5_BG-grey_stim-white.png,0,264,264,264,267.4305278680404,,,,,,,,,,267.3867705350276,267.435409519996,267.435409519996,268.1843296250445,268.17391201201826,268.4023943140055,None,0,,,,,sub-003,ses-main-base-l-1,run-1,grey,2024-04-25_13h57.35.495,VDT,2023.2.3,120.46514380750689,2024-04-25 13h57.57.655124 +0200,
./images_beh/Sphere_CW-1.5_BG-grey_stim-white.png,0,265,265,265,268.44984074804233,,,,,,,,,,268.40329527604626,268.44984074804233,268.44984074804233,269.18377298500855,269.19048407301307,269.40221533499425,None,0,,,,,sub-003,ses-main-base-l-1,run-1,grey,2024-04-25_13h57.35.495,VDT,2023.2.3,120.46514380750689,2024-04-25 13h57.57.655124 +0200,
./images_beh/Sphere_CW-1.5_BG-grey_stim-white.png,0,266,266,266,269.4493091230397,,,,,,,,,,269.403230144002,269.4493091230397,269.4493091230397,270.183210008021,270.1906642910326,270.417643443041,None,0,,,,,sub-003,ses-main-base-l-1,run-1,grey,2024-04-25_13h57.35.495,VDT,2023.2.3,120.46514380750689,2024-04-25 13h57.57.655124 +0200,
./images_beh/Sphere_Ref_BG-grey_stim-white.png,0,267,267,267,270.4610608550138,,,,,,,,,,270.4182443860336,270.4610608550138,270.4610608550138,271.18994547904003,271.20560277602635,271.40089139103657,None,0,,,,,sub-003,ses-main-base-l-1,run-1,grey,2024-04-25_13h57.35.495,VDT,2023.2.3,120.46514380750689,2024-04-25 13h57.57.655124 +0200,
./images_beh/Sphere_CW-1.5_BG-grey_stim-white.png,0,268,268,268,271.4503737540217,,,,,,,,,,271.40223071700893,271.4503737540217,271.4503737540217,272.18212669703644,272.19887296500383,272.40490101702744,None,0,,,,,sub-003,ses-main-base-l-1,run-1,grey,2024-04-25_13h57.35.495,VDT,2023.2.3,120.46514380750689,2024-04-25 13h57.57.655124 +0200,
./images_beh/Sphere_CCW-1.5_BG-grey_stim-white.png,0,269,269,269,272.44295732601313,,,,,,,,,,272.4055009370204,272.44295732601313,272.44295732601313,273.18173281202326,273.1891009110259,273.3545827729977,['space'],0,0.08439519099192694,None,,,sub-003,ses-main-base-l-1,run-1,grey,2024-04-25_13h57.35.495,VDT,2023.2.3,120.46514380750689,2024-04-25 13h57.57.655124 +0200,
