image,trials.thisRepN,trials.thisTrialN,trials.thisN,trials.thisIndex,thisRow.t,notes,WaitingForScannerTrigger.started,Vertical.started,key_resp.started,WaitingForScannerTrigger.stopped,key_resp.keys,key_resp.corr,key_resp.rt,key_resp.duration,VDT.started,PresentedLine1.started,key_resp_2.started,FixDot2.started,PresentedLine1.stopped,VDT.stopped,key_resp_2.keys,key_resp_2.corr,FixDot2.stopped,key_resp_2.stopped,participant,session,run,BG_color,date,expName,psychopyVersion,frameRate,expStart,
,,,,,,,0.005363640986615792,0.01574272901052609,0.01574272901052609,2.100600570993265,s,0,2.081526844005566,None,,,,,,,,,,,sub-DDS_testrun,ses-4control,run-2,grey,2024-10-15_11h15.43.997,VDT,2023.2.3,119.80618187122825,2024-10-15 11h15.47.855513 +0200,
./images_eeg/Sphere_CCW-0.75_BG-grey_stim-white.png,0,0,0,0,2.15399079900817,,,,,,,,,,2.110921101004351,2.15399079900817,2.15399079900817,2.8475389069935773,2.897410311998101,3.0566177160071675,None,0,,,sub-DDS_testrun,ses-4control,run-2,grey,2024-10-15_11h15.43.997,VDT,2023.2.3,119.80618187122825,2024-10-15 11h15.47.855513 +0200,
./images_eeg/Sphere_CCW-0.75_BG-grey_stim-white.png,0,1,1,1,3.105589412007248,,,,,,,,,,3.057415441988269,3.105589412007248,3.105589412007248,3.847539449983742,3.847539449983742,4.081129188009072,None,0,,,sub-DDS_testrun,ses-4control,run-2,grey,2024-10-15_11h15.43.997,VDT,2023.2.3,119.80618187122825,2024-10-15 11h15.47.855513 +0200,
./images_eeg/Sphere_CW-0.75_BG-grey_stim-white.png,0,2,2,2,4.133438913006103,,,,,,,,,,4.082198649994098,4.133438913006103,4.133438913006103,4.848825377004687,4.882765724003548,5.047778767009731,None,0,,,sub-DDS_testrun,ses-4control,run-2,grey,2024-10-15_11h15.43.997,VDT,2023.2.3,119.80618187122825,2024-10-15 11h15.47.855513 +0200,
./images_eeg/Sphere_CW-0.75_BG-grey_stim-white.png,0,3,3,3,5.100082179007586,,,,,,,,,,5.048635101004038,5.1135335069848225,5.1135335069848225,5.846932338987244,5.855196891992819,6.064636182010872,None,0,,,sub-DDS_testrun,ses-4control,run-2,grey,2024-10-15_11h15.43.997,VDT,2023.2.3,119.80618187122825,2024-10-15 11h15.47.855513 +0200,
./images_eeg/Sphere_CW-0.75_BG-grey_stim-white.png,0,4,4,4,6.116838229005225,,,,,,,,,,6.065648615011014,6.116838229005225,6.116838229005225,6.846381170995301,6.862891206983477,7.080498141003773,None,0,,,sub-DDS_testrun,ses-4control,run-2,grey,2024-10-15_11h15.43.997,VDT,2023.2.3,119.80618187122825,2024-10-15 11h15.47.855513 +0200,
./images_eeg/Sphere_CCW-0.75_BG-grey_stim-white.png,0,5,5,5,7.127803398005199,,,,,,,,,,7.081291937007336,7.127803398005199,7.127803398005199,7.846630013984395,7.871652864996577,8.071925705007743,None,0,,,sub-DDS_testrun,ses-4control,run-2,grey,2024-10-15_11h15.43.997,VDT,2023.2.3,119.80618187122825,2024-10-15 11h15.47.855513 +0200,
./images_eeg/Sphere_Ref_BG-grey_stim-yellow.png,0,6,6,6,8.119597357988823,,,,,,,,,,8.072676123003475,8.119597357988823,8.119597357988823,8.84608946699882,8.863909011997748,9.063403653999558,None,0,,,sub-DDS_testrun,ses-4control,run-2,grey,2024-10-15_11h15.43.997,VDT,2023.2.3,119.80618187122825,2024-10-15 11h15.47.855513 +0200,
./images_eeg/Sphere_CW-0.75_BG-grey_stim-white.png,0,7,7,7,9.114583833987126,,,,,,,,,,9.064771375007695,9.114583833987126,9.114583833987126,9.845863166003255,9.863354083005106,10.037725216010585,None,0,,,sub-DDS_testrun,ses-4control,run-2,grey,2024-10-15_11h15.43.997,VDT,2023.2.3,119.80618187122825,2024-10-15 11h15.47.855513 +0200,
./images_eeg/Sphere_CW-0.75_BG-grey_stim-white.png,0,8,8,8,10.08519965299638,,,,,,,,,,10.038324530003592,10.095617723010946,10.095617723010946,10.84851566600264,10.835522281005979,11.029681262996746,None,0,,,sub-DDS_testrun,ses-4control,run-2,grey,2024-10-15_11h15.43.997,VDT,2023.2.3,119.80618187122825,2024-10-15 11h15.47.855513 +0200,
./images_eeg/Sphere_Ref_BG-grey_stim-yellow.png,0,9,9,9,11.07344566998654,,,,,,,,,,11.030413697997574,11.095546355994884,11.095546355994884,11.845489803003147,11.835347427986562,12.036821219982812,None,0,,,sub-DDS_testrun,ses-4control,run-2,grey,2024-10-15_11h15.43.997,VDT,2023.2.3,119.80618187122825,2024-10-15 11h15.47.855513 +0200,
./images_eeg/Sphere_CCW-0.75_BG-grey_stim-white.png,0,10,10,10,12.0838179650018,,,,,,,,,,12.037715410988312,12.094974709994858,12.094974709994858,12.845160845987266,12.834996608988149,13.005200415995205,None,0,,,sub-DDS_testrun,ses-4control,run-2,grey,2024-10-15_11h15.43.997,VDT,2023.2.3,119.80618187122825,2024-10-15 11h15.47.855513 +0200,
./images_eeg/Sphere_CW-0.75_BG-grey_stim-white.png,0,11,11,11,13.055558377993293,,,,,,,,,,13.006192731991177,13.094921977986814,13.094921977986814,13.845041644992307,13.833443895011442,14.11520357299014,None,0,14.08393753398559,14.08393753398559,sub-DDS_testrun,ses-4control,run-2,grey,2024-10-15_11h15.43.997,VDT,2023.2.3,119.80618187122825,2024-10-15 11h15.47.855513 +0200,
./images_eeg/Sphere_CCW-0.75_BG-grey_stim-yellow.png,0,12,12,12,14.16753243599669,,,,,,,,,,14.115942290984094,14.16753243599669,14.16753243599669,14.844819774007192,14.927848096005619,15.020070625003427,None,0,,,sub-DDS_testrun,ses-4control,run-2,grey,2024-10-15_11h15.43.997,VDT,2023.2.3,119.80618187122825,2024-10-15 11h15.47.855513 +0200,
./images_eeg/Sphere_CCW-0.75_BG-grey_stim-white.png,0,13,13,13,15.070364755985793,,,,,,,,,,15.020829840010265,15.094150683988119,15.094150683988119,15.844572567992145,15.833632803987712,16.028135094005847,None,0,,,sub-DDS_testrun,ses-4control,run-2,grey,2024-10-15_11h15.43.997,VDT,2023.2.3,119.80618187122825,2024-10-15 11h15.47.855513 +0200,
./images_eeg/Sphere_Ref_BG-grey_stim-white.png,0,14,14,14,16.072030877985526,,,,,,,,,,16.02897863200633,16.093604521011002,16.093604521011002,16.863369472994236,16.863369472994236,17.09435726000811,None,0,,17.08503727801144,sub-DDS_testrun,ses-4control,run-2,grey,2024-10-15_11h15.43.997,VDT,2023.2.3,119.80618187122825,2024-10-15 11h15.47.855513 +0200,
./images_eeg/Sphere_CW-0.75_BG-grey_stim-yellow.png,0,15,15,15,17.135121284984052,,,,,,,,,,17.095053753990214,17.135121284984052,17.135121284984052,17.86034616600955,17.87726238599862,18.097429591987748,None,0,,,sub-DDS_testrun,ses-4control,run-2,grey,2024-10-15_11h15.43.997,VDT,2023.2.3,119.80618187122825,2024-10-15 11h15.47.855513 +0200,
./images_eeg/Sphere_CCW-0.75_BG-grey_stim-white.png,0,16,16,16,18.149037549010245,,,,,,,,,,18.098179991997313,18.149037549010245,18.149037549010245,18.853115103003802,18.91028875298798,19.0189225510112,None,0,,,sub-DDS_testrun,ses-4control,run-2,grey,2024-10-15_11h15.43.997,VDT,2023.2.3,119.80618187122825,2024-10-15 11h15.47.855513 +0200,
./images_eeg/Sphere_Ref_BG-grey_stim-white.png,0,17,17,17,19.069990827993024,,,,,,,,,,19.019842287001666,19.099755162984366,19.099755162984366,19.853042155998992,19.853042155998992,20.06020495100529,None,0,,,sub-DDS_testrun,ses-4control,run-2,grey,2024-10-15_11h15.43.997,VDT,2023.2.3,119.80618187122825,2024-10-15 11h15.47.855513 +0200,
