image,trials.thisRepN,trials.thisTrialN,trials.thisN,trials.thisIndex,thisRow.t,notes,WaitingForScannerTrigger.started,Vertical.started,key_resp.started,WaitingForScannerTrigger.stopped,key_resp.keys,key_resp.corr,key_resp.rt,key_resp.duration,VDT.started,PresentedLine1.started,key_resp_2.started,FixDot2.started,PresentedLine1.stopped,FixDot2.stopped,VDT.stopped,key_resp_2.keys,key_resp_2.corr,key_resp_2.rt,key_resp_2.duration,key_resp_2.stopped,participant,session,run,BG_color,date,expName,psychopyVersion,frameRate,expStart,
,,,,,,,0.0060093560023233294,0.014909538003848866,0.014909538003848866,1.1757577539829072,s,0,1.1516858779941685,None,,,,,,,,,,,,,sub-SM2,ses-5control,run-4,grey,2024-05-31_12h26.41.951,VDT,2023.2.3,122.13942595989916,2024-05-31 12h26.44.988946 +0200,
./images_eeg/Sphere_CW-3_BG-grey_stim-white.png,0,0,0,0,1.2224363650020678,,,,,,,,,,1.1827016070019454,1.2224363650020678,1.2224363650020678,1.9241406520013697,1.9656938969856128,2.1639991590054706,2.1648772099870257,None,0,,,,sub-SM2,ses-5control,run-4,grey,2024-05-31_12h26.41.951,VDT,2023.2.3,122.13942595989916,2024-05-31 12h26.44.988946 +0200,
./images_eeg/Sphere_CW-3_BG-grey_stim-white.png,0,1,1,1,2.21378535500844,,,,,,,,,,2.165527804987505,2.21378535500844,2.21378535500844,2.9242185080074705,2.9571603600052185,,3.091675067000324,None,0,,,,sub-SM2,ses-5control,run-4,grey,2024-05-31_12h26.41.951,VDT,2023.2.3,122.13942595989916,2024-05-31 12h26.44.988946 +0200,
./images_eeg/Sphere_Ref_BG-grey_stim-yellow.png,0,2,2,2,3.1425375590042677,,,,,,,,,,3.0924020849925,3.173754013987491,3.173754013987491,3.9236764590023085,3.9137041560024954,,4.099880185996881,['space'],0,0.4096384400036186,None,,sub-SM2,ses-5control,run-4,grey,2024-05-31_12h26.41.951,VDT,2023.2.3,122.13942595989916,2024-05-31 12h26.44.988946 +0200,
./images_eeg/Sphere_CW-3_BG-grey_stim-white.png,0,3,3,3,4.149769801006187,,,,,,,,,,4.100860336999176,4.173745495994808,4.173745495994808,4.923370848002378,4.913263575988822,,5.1489696739881765,None,0,,,,sub-SM2,ses-5control,run-4,grey,2024-05-31_12h26.41.951,VDT,2023.2.3,122.13942595989916,2024-05-31 12h26.44.988946 +0200,
./images_eeg/Sphere_CW-3_BG-grey_stim-white.png,0,4,4,4,5.191871460003313,,,,,,,,,,5.149381427007029,5.191871460003313,5.191871460003313,5.922936071990989,5.939916890987661,,6.123462944990024,None,0,,,,sub-SM2,ses-5control,run-4,grey,2024-05-31_12h26.41.951,VDT,2023.2.3,122.13942595989916,2024-05-31 12h26.44.988946 +0200,
./images_eeg/Sphere_CW-3_BG-grey_stim-white.png,0,5,5,5,6.163878325984115,,,,,,,,,,6.124046377983177,6.174904415995115,6.174904415995115,6.926143132004654,6.926143132004654,,7.164802321000025,None,0,,,,sub-SM2,ses-5control,run-4,grey,2024-05-31_12h26.41.951,VDT,2023.2.3,122.13942595989916,2024-05-31 12h26.44.988946 +0200,
./images_eeg/Sphere_CCW-3_BG-grey_stim-yellow.png,0,6,6,6,7.21031547698658,,,,,,,,,,7.165298020001501,7.21031547698658,7.21031547698658,7.922752051992575,7.960444553988054,,8.106848508992698,['space'],0,0.5646921949810348,None,,sub-SM2,ses-5control,run-4,grey,2024-05-31_12h26.41.951,VDT,2023.2.3,122.13942595989916,2024-05-31 12h26.44.988946 +0200,
./images_eeg/Sphere_CCW-3_BG-grey_stim-white.png,0,7,7,7,8.164647208002862,,,,,,,,,,8.107839539996348,8.180063564999728,8.180063564999728,8.922829577000812,8.922829577000812,,9.081027242995333,None,0,,,,sub-SM2,ses-5control,run-4,grey,2024-05-31_12h26.41.951,VDT,2023.2.3,122.13942595989916,2024-05-31 12h26.44.988946 +0200,
./images_eeg/Sphere_CCW-3_BG-grey_stim-white.png,0,8,8,8,9.127470742008882,,,,,,,,,,9.08136413700413,9.172095091984374,9.172095091984374,9.925142774998676,9.912090789992362,10.17191946398816,10.178016624995507,None,0,,,10.162810351990629,sub-SM2,ses-5control,run-4,grey,2024-05-31_12h26.41.951,VDT,2023.2.3,122.13942595989916,2024-05-31 12h26.44.988946 +0200,
./images_eeg/Sphere_Ref_BG-grey_stim-white.png,0,9,9,9,10.226292214996647,,,,,,,,,,10.17836444400018,10.226292214996647,10.226292214996647,10.92166398698464,10.98064537299797,,11.11275050099357,None,0,,,,sub-SM2,ses-5control,run-4,grey,2024-05-31_12h26.41.951,VDT,2023.2.3,122.13942595989916,2024-05-31 12h26.44.988946 +0200,
./images_eeg/Sphere_Ref_BG-grey_stim-white.png,0,10,10,10,11.146931447990937,,,,,,,,,,11.113164481997956,11.175256694987183,11.175256694987183,11.921189493994461,11.921189493994461,,12.145579050004017,None,0,,,,sub-SM2,ses-5control,run-4,grey,2024-05-31_12h26.41.951,VDT,2023.2.3,122.13942595989916,2024-05-31 12h26.44.988946 +0200,
./images_eeg/Sphere_CW-3_BG-grey_stim-yellow.png,0,11,11,11,12.18492090399377,,,,,,,,,,12.145938250003383,12.18492090399377,12.18492090399377,12.922156688000541,12.930568576004589,,13.112617542006774,['space'],0,0.5278669669933151,None,,sub-SM2,ses-5control,run-4,grey,2024-05-31_12h26.41.951,VDT,2023.2.3,122.13942595989916,2024-05-31 12h26.44.988946 +0200,
./images_eeg/Sphere_CCW-3_BG-grey_stim-white.png,0,12,12,12,13.152008225006284,,,,,,,,,,13.113273297989508,13.18808777598315,13.18808777598315,13.920971232990269,13.928509933000896,,14.105188585992437,None,0,,,,sub-SM2,ses-5control,run-4,grey,2024-05-31_12h26.41.951,VDT,2023.2.3,122.13942595989916,2024-05-31 12h26.44.988946 +0200,
./images_eeg/Sphere_CCW-3_BG-grey_stim-white.png,0,13,13,13,14.148250091006048,,,,,,,,,,14.105995443998836,14.170717989996774,14.170717989996774,14.920817243983038,14.91040284698829,,15.138038568984484,None,0,,,,sub-SM2,ses-5control,run-4,grey,2024-05-31_12h26.41.951,VDT,2023.2.3,122.13942595989916,2024-05-31 12h26.44.988946 +0200,
./images_eeg/Sphere_CW-3_BG-grey_stim-white.png,0,14,14,14,15.17933855598676,,,,,,,,,,15.138787900010357,15.17933855598676,15.17933855598676,15.92042119600228,15.928012024000054,,16.121389842010103,None,0,,,,sub-SM2,ses-5control,run-4,grey,2024-05-31_12h26.41.951,VDT,2023.2.3,122.13942595989916,2024-05-31 12h26.44.988946 +0200,
./images_eeg/Sphere_Ref_BG-grey_stim-yellow.png,0,15,15,15,16.164523193001514,,,,,,,,,,16.12222624500282,16.170845676999306,16.170845676999306,16.920352248009294,16.91028859000653,,17.154461825994076,['space'],0,0.5374888250080403,None,,sub-SM2,ses-5control,run-4,grey,2024-05-31_12h26.41.951,VDT,2023.2.3,122.13942595989916,2024-05-31 12h26.44.988946 +0200,
./images_eeg/Sphere_CCW-3_BG-grey_stim-white.png,0,16,16,16,17.199975892988732,,,,,,,,,,17.15544253398548,17.199975892988732,17.199975892988732,17.920090461004293,17.944709809991764,,18.112004171998706,None,0,,,,sub-SM2,ses-5control,run-4,grey,2024-05-31_12h26.41.951,VDT,2023.2.3,122.13942595989916,2024-05-31 12h26.44.988946 +0200,
./images_eeg/Sphere_CCW-3_BG-grey_stim-white.png,0,17,17,17,18.159569513984025,,,,,,,,,,18.11265900800936,18.16975239099702,18.16975239099702,18.919682987005217,18.909445330995368,19.160271542990813,19.19509458198445,None,0,,,19.160271542990813,sub-SM2,ses-5control,run-4,grey,2024-05-31_12h26.41.951,VDT,2023.2.3,122.13942595989916,2024-05-31 12h26.44.988946 +0200,
