image,trials.thisRepN,trials.thisTrialN,trials.thisN,trials.thisIndex,thisRow.t,notes,WaitingForScannerTrigger.started,Vertical.started,key_resp.started,WaitingForScannerTrigger.stopped,key_resp.keys,key_resp.corr,key_resp.rt,key_resp.duration,VDT.started,PresentedLine1.started,key_resp_2.started,FixDot2.started,PresentedLine1.stopped,VDT.stopped,key_resp_2.keys,key_resp_2.corr,key_resp_2.rt,key_resp_2.duration,FixDot2.stopped,participant,session,run,BG_color,date,expName,psychopyVersion,frameRate,expStart,
,,,,,,,0.005365792982047424,0.012935003003804013,0.012935003003804013,1.7095729389984626,s,0,1.691879488993436,None,,,,,,,,,,,,sub-SM2,ses-5control,run-5,grey,2024-05-31_12h27.04.265,VDT,2023.2.3,120.3164013492048,2024-05-31 12h27.08.381636 +0200,
./images_eeg/Sphere_CW-3_BG-grey_stim-white.png,0,0,0,0,1.7598035089904442,,,,,,,,,,1.718627073976677,1.7598035089904442,1.7598035089904442,2.457515621994389,2.5074533529987093,2.6582532039901707,None,0,,,,sub-SM2,ses-5control,run-5,grey,2024-05-31_12h27.04.265,VDT,2023.2.3,120.3164013492048,2024-05-31 12h27.08.381636 +0200,
./images_eeg/Sphere_Ref_BG-grey_stim-white.png,0,1,1,1,2.6956200349959545,,,,,,,,,,2.6591435549780726,2.7067329959827475,2.7067329959827475,3.457483553997008,3.4470092029951047,3.6585899439814966,None,0,,,,sub-SM2,ses-5control,run-5,grey,2024-05-31_12h27.04.265,VDT,2023.2.3,120.3164013492048,2024-05-31 12h27.08.381636 +0200,
./images_eeg/Sphere_CCW-3_BG-grey_stim-yellow.png,0,2,2,2,3.7074547649826854,,,,,,,,,,3.6595328869880177,3.7162982529844157,3.7162982529844157,4.456734935985878,4.464088303997414,4.690539779985556,['space'],0,0.5784935349947773,None,,sub-SM2,ses-5control,run-5,grey,2024-05-31_12h27.04.265,VDT,2023.2.3,120.3164013492048,2024-05-31 12h27.08.381636 +0200,
./images_eeg/Sphere_CW-3_BG-grey_stim-white.png,0,3,3,3,4.735021800996037,,,,,,,,,,4.6916797519952524,4.735021800996037,4.735021800996037,5.456553283991525,5.480780886980938,5.656990178977139,None,0,,,,sub-SM2,ses-5control,run-5,grey,2024-05-31_12h27.04.265,VDT,2023.2.3,120.3164013492048,2024-05-31 12h27.08.381636 +0200,
./images_eeg/Sphere_CW-3_BG-grey_stim-white.png,0,4,4,4,5.697334425000008,,,,,,,,,,5.657679300988093,5.7066073379828595,5.7066073379828595,6.456546515983064,6.446576260990696,6.690335061983205,None,0,,,,sub-SM2,ses-5control,run-5,grey,2024-05-31_12h27.04.265,VDT,2023.2.3,120.3164013492048,2024-05-31 12h27.08.381636 +0200,
./images_eeg/Sphere_CCW-3_BG-grey_stim-white.png,0,5,5,5,6.732860560994595,,,,,,,,,,6.691006990993628,6.732860560994595,6.732860560994595,7.45622534697759,7.481492970982799,7.706812115997309,None,0,,,7.695695709990105,sub-SM2,ses-5control,run-5,grey,2024-05-31_12h27.04.265,VDT,2023.2.3,120.3164013492048,2024-05-31 12h27.08.381636 +0200,
./images_eeg/Sphere_Ref_BG-grey_stim-yellow.png,0,6,6,6,7.750954789982643,,,,,,,,,,7.707624750997638,7.750954789982643,7.750954789982643,8.455848229990806,8.498213219980244,8.690274571999907,['space'],0,0.5070008430047892,None,,sub-SM2,ses-5control,run-5,grey,2024-05-31_12h27.04.265,VDT,2023.2.3,120.3164013492048,2024-05-31 12h27.08.381636 +0200,
./images_eeg/Sphere_CCW-3_BG-grey_stim-white.png,0,7,7,7,8.735504156997195,,,,,,,,,,8.691251880984055,8.735504156997195,8.735504156997195,9.456250902992906,9.481350982998265,9.664247816981515,None,0,,,,sub-SM2,ses-5control,run-5,grey,2024-05-31_12h27.04.265,VDT,2023.2.3,120.3164013492048,2024-05-31 12h27.08.381636 +0200,
./images_eeg/Sphere_CCW-3_BG-grey_stim-white.png,0,8,8,8,9.706591926980764,,,,,,,,,,9.664698910986772,9.706591926980764,9.706591926980764,10.464241952984594,10.45571937999921,10.646616583981086,None,0,,,,sub-SM2,ses-5control,run-5,grey,2024-05-31_12h27.04.265,VDT,2023.2.3,120.3164013492048,2024-05-31 12h27.08.381636 +0200,
./images_eeg/Sphere_CCW-3_BG-grey_stim-white.png,0,9,9,9,10.690146742999787,,,,,,,,,,10.64710000497871,10.712267248978605,10.712267248978605,11.455060968990438,11.455060968990438,11.655564493004931,None,0,,,,sub-SM2,ses-5control,run-5,grey,2024-05-31_12h27.04.265,VDT,2023.2.3,120.3164013492048,2024-05-31 12h27.08.381636 +0200,
./images_eeg/Sphere_Ref_BG-grey_stim-yellow.png,0,10,10,10,11.697925586981,,,,,,,,,,11.65603118299623,11.70445525899413,11.70445525899413,12.454553855000995,12.444415723002749,12.638684575998923,['space'],0,0.46966192199033685,None,,sub-SM2,ses-5control,run-5,grey,2024-05-31_12h27.04.265,VDT,2023.2.3,120.3164013492048,2024-05-31 12h27.08.381636 +0200,
./images_eeg/Sphere_CW-3_BG-grey_stim-white.png,0,11,11,11,12.682416984986048,,,,,,,,,,12.6394793530053,12.704783616994973,12.704783616994973,13.454572392976843,13.444952874997398,13.66249752699514,None,0,,,,sub-SM2,ses-5control,run-5,grey,2024-05-31_12h27.04.265,VDT,2023.2.3,120.3164013492048,2024-05-31 12h27.08.381636 +0200,
./images_eeg/Sphere_CW-3_BG-grey_stim-white.png,0,12,12,12,13.718885516980663,,,,,,,,,,13.66321614899789,13.718885516980663,13.718885516980663,14.454317944997456,14.461987411981681,14.654687019996345,None,0,,,,sub-SM2,ses-5control,run-5,grey,2024-05-31_12h27.04.265,VDT,2023.2.3,120.3164013492048,2024-05-31 12h27.08.381636 +0200,
./images_eeg/Sphere_CW-3_BG-grey_stim-white.png,0,13,13,13,14.696031872997992,,,,,,,,,,14.655499991989927,14.703955335979117,14.703955335979117,15.453902654000558,15.444923384988215,15.64620300999377,None,0,,,,sub-SM2,ses-5control,run-5,grey,2024-05-31_12h27.04.265,VDT,2023.2.3,120.3164013492048,2024-05-31 12h27.08.381636 +0200,
./images_eeg/Sphere_CW-3_BG-grey_stim-yellow.png,0,14,14,14,15.688561628980096,,,,,,,,,,15.64671523400466,15.710626504995162,15.710626504995162,16.453454097994836,16.453454097994836,16.654791663982905,['space'],0,0.5890572930220515,None,,sub-SM2,ses-5control,run-5,grey,2024-05-31_12h27.04.265,VDT,2023.2.3,120.3164013492048,2024-05-31 12h27.08.381636 +0200,
./images_eeg/Sphere_CCW-3_BG-grey_stim-white.png,0,15,15,15,16.702531004993943,,,,,,,,,,16.656077539984835,16.709846057987306,16.709846057987306,17.453270989004523,17.453270989004523,17.64562060299795,None,0,,,,sub-SM2,ses-5control,run-5,grey,2024-05-31_12h27.04.265,VDT,2023.2.3,120.3164013492048,2024-05-31 12h27.08.381636 +0200,
./images_eeg/Sphere_Ref_BG-grey_stim-white.png,0,16,16,16,17.69776934798574,,,,,,,,,,17.646469771978445,17.704347689985298,17.704347689985298,18.4529881849885,18.4529881849885,18.621759886998916,None,0,,,,sub-SM2,ses-5control,run-5,grey,2024-05-31_12h27.04.265,VDT,2023.2.3,120.3164013492048,2024-05-31 12h27.08.381636 +0200,
./images_eeg/Sphere_CCW-3_BG-grey_stim-white.png,0,17,17,17,18.668286742991768,,,,,,,,,,18.622376749000978,18.710387794999406,18.710387794999406,19.453027195995674,19.453027195995674,19.692994276003446,None,0,,,19.69221936300164,sub-SM2,ses-5control,run-5,grey,2024-05-31_12h27.04.265,VDT,2023.2.3,120.3164013492048,2024-05-31 12h27.08.381636 +0200,
