image,trials.thisRepN,trials.thisTrialN,trials.thisN,trials.thisIndex,thisRow.t,notes,WaitingForScannerTrigger.started,Vertical.started,key_resp.started,WaitingForScannerTrigger.stopped,key_resp.keys,key_resp.corr,key_resp.rt,key_resp.duration,VDT.started,PresentedLine1.started,key_resp_2.started,FixDot2.started,PresentedLine1.stopped,VDT.stopped,key_resp_2.keys,key_resp_2.corr,FixDot2.stopped,participant,session,run,BG_color,date,expName,psychopyVersion,frameRate,expStart,
,,,,,,,0.0048886909789871424,0.012042963993735611,0.012042963993735611,12.673498611984542,s,0,12.624531937006395,None,,,,,,,,,,sub-DDS_testrun2,ses-1main,run-1,grey,2024-10-15_11h27.24.813,VDT,2023.2.3,117.48591653778446,2024-10-15 11h27.40.887909 +0200,
./images_eeg/Sphere_CW-0.75_BG-grey_stim-white.png,0,0,0,0,12.726540171977831,,,,,,,,,,12.68120156598161,12.726540171977831,12.726540171977831,13.422329175984487,13.47908098899643,13.629880685999524,None,0,,sub-DDS_testrun2,ses-1main,run-1,grey,2024-10-15_11h27.24.813,VDT,2023.2.3,117.48591653778446,2024-10-15 11h27.40.887909 +0200,
./images_eeg/Sphere_CW-0.75_BG-grey_stim-white.png,0,1,1,1,13.683202421001624,,,,,,,,,,13.631473827990703,13.683202421001624,13.683202421001624,14.422077681985684,14.430101238976931,14.595820781978546,None,0,,sub-DDS_testrun2,ses-1main,run-1,grey,2024-10-15_11h27.24.813,VDT,2023.2.3,117.48591653778446,2024-10-15 11h27.40.887909 +0200,
./images_eeg/Sphere_CCW-0.75_BG-grey_stim-white.png,0,2,2,2,14.641074489976745,,,,,,,,,,14.596867725980701,14.668329549982445,14.668329549982445,15.420410079997964,15.41165376297431,15.598523838998517,None,0,,sub-DDS_testrun2,ses-1main,run-1,grey,2024-10-15_11h27.24.813,VDT,2023.2.3,117.48591653778446,2024-10-15 11h27.40.887909 +0200,
./images_eeg/Sphere_CW-0.75_BG-grey_stim-white.png,0,3,3,3,15.652264514996205,,,,,,,,,,15.599248320999322,15.668327583989594,15.668327583989594,16.42048875099863,16.411866875976557,16.620551390980836,None,0,,sub-DDS_testrun2,ses-1main,run-1,grey,2024-10-15_11h27.24.813,VDT,2023.2.3,117.48591653778446,2024-10-15 11h27.40.887909 +0200,
./images_eeg/Sphere_CCW-0.75_BG-grey_stim-white.png,0,4,4,4,16.669191611988936,,,,,,,,,,16.621289237984456,16.67718583298847,16.67718583298847,17.419428307999624,17.419428307999624,17.66191116097616,None,0,17.66108991697547,sub-DDS_testrun2,ses-1main,run-1,grey,2024-10-15_11h27.24.813,VDT,2023.2.3,117.48591653778446,2024-10-15 11h27.40.887909 +0200,
./images_eeg/Sphere_Ref_BG-grey_stim-white.png,0,5,5,5,17.703589096985525,,,,,,,,,,17.662575099995593,17.703589096985525,17.703589096985525,18.420231690979563,18.445439082977828,18.61192409499199,None,0,,sub-DDS_testrun2,ses-1main,run-1,grey,2024-10-15_11h27.24.813,VDT,2023.2.3,117.48591653778446,2024-10-15 11h27.40.887909 +0200,
./images_eeg/Sphere_CCW-0.75_BG-grey_stim-white.png,0,6,6,6,18.660836523980834,,,,,,,,,,18.61281916598091,18.668888425978366,18.668888425978366,19.41853334798361,19.410614366002847,19.61159486899851,None,0,,sub-DDS_testrun2,ses-1main,run-1,grey,2024-10-15_11h27.24.813,VDT,2023.2.3,117.48591653778446,2024-10-15 11h27.40.887909 +0200,
./images_eeg/Sphere_CW-0.75_BG-grey_stim-white.png,0,7,7,7,19.65931969799567,,,,,,,,,,19.61271248498815,19.667463880003197,19.667463880003197,20.419024165981682,20.41061661398271,20.59461193298921,None,0,,sub-DDS_testrun2,ses-1main,run-1,grey,2024-10-15_11h27.24.813,VDT,2023.2.3,117.48591653778446,2024-10-15 11h27.40.887909 +0200,
./images_eeg/Sphere_CCW-0.75_BG-grey_stim-white.png,0,8,8,8,20.643254247988807,,,,,,,,,,20.59573643800104,20.66678784097894,20.66678784097894,21.418966577999527,21.410465230001137,21.59431536498596,None,0,,sub-DDS_testrun2,ses-1main,run-1,grey,2024-10-15_11h27.24.813,VDT,2023.2.3,117.48591653778446,2024-10-15 11h27.40.887909 +0200,
./images_eeg/Sphere_Ref_BG-grey_stim-white.png,0,9,9,9,21.63858647699817,,,,,,,,,,21.595278870983748,21.66648816099041,21.66648816099041,22.419252320978558,22.419252320978558,22.61073952098377,None,0,,sub-DDS_testrun2,ses-1main,run-1,grey,2024-10-15_11h27.24.813,VDT,2023.2.3,117.48591653778446,2024-10-15 11h27.40.887909 +0200,
./images_eeg/Sphere_CW-0.75_BG-grey_stim-white.png,0,10,10,10,22.66210938099539,,,,,,,,,,22.611884349986212,22.676316992990905,22.676316992990905,23.41826664999826,23.41826664999826,23.633789607993094,None,0,,sub-DDS_testrun2,ses-1main,run-1,grey,2024-10-15_11h27.24.813,VDT,2023.2.3,117.48591653778446,2024-10-15 11h27.40.887909 +0200,
./images_eeg/Sphere_CCW-0.75_BG-grey_stim-white.png,0,11,11,11,23.668611260975013,,,,,,,,,,23.63422345399158,23.677274510002462,23.677274510002462,24.419034940976417,24.42657515697647,24.6102411460015,None,0,,sub-DDS_testrun2,ses-1main,run-1,grey,2024-10-15_11h27.24.813,VDT,2023.2.3,117.48591653778446,2024-10-15 11h27.40.887909 +0200,
./images_eeg/Sphere_Ref_BG-grey_stim-white.png,0,12,12,12,24.65791492498829,,,,,,,,,,24.611291401990457,24.66582659399137,24.66582659399137,25.417679404985392,25.40934453997761,25.642928196990397,None,0,,sub-DDS_testrun2,ses-1main,run-1,grey,2024-10-15_11h27.24.813,VDT,2023.2.3,117.48591653778446,2024-10-15 11h27.40.887909 +0200,
./images_eeg/Sphere_CCW-0.75_BG-grey_stim-white.png,0,13,13,13,25.6809542029805,,,,,,,,,,25.643800608988386,25.6809542029805,25.6809542029805,26.41881491499953,26.427345768985106,26.617788386996835,None,0,,sub-DDS_testrun2,ses-1main,run-1,grey,2024-10-15_11h27.24.813,VDT,2023.2.3,117.48591653778446,2024-10-15 11h27.40.887909 +0200,
./images_eeg/Sphere_CW-0.75_BG-grey_stim-white.png,0,14,14,14,26.66636684097466,,,,,,,,,,26.618391229974804,26.675335294974502,26.675335294974502,27.41695266700117,27.41695266700117,27.633205765974708,None,0,,sub-DDS_testrun2,ses-1main,run-1,grey,2024-10-15_11h27.24.813,VDT,2023.2.3,117.48591653778446,2024-10-15 11h27.40.887909 +0200,
./images_eeg/Sphere_Ref_BG-grey_stim-white.png,0,15,15,15,27.673384282999905,,,,,,,,,,27.633644316985738,27.673384282999905,27.673384282999905,28.41675930097699,28.41675930097699,28.609452767996117,None,0,,sub-DDS_testrun2,ses-1main,run-1,grey,2024-10-15_11h27.24.813,VDT,2023.2.3,117.48591653778446,2024-10-15 11h27.40.887909 +0200,
./images_eeg/Sphere_CW-0.75_BG-grey_stim-white.png,0,16,16,16,28.66534851299366,,,,,,,,,,28.61052521399688,28.66534851299366,28.66534851299366,29.41614769998705,29.40803380397847,29.609307899983833,None,0,,sub-DDS_testrun2,ses-1main,run-1,grey,2024-10-15_11h27.24.813,VDT,2023.2.3,117.48591653778446,2024-10-15 11h27.40.887909 +0200,
./images_eeg/Sphere_CCW-0.75_BG-grey_stim-white.png,0,17,17,17,29.65830840097624,,,,,,,,,,29.610131207999075,29.666716245003045,29.666716245003045,30.42428886698326,30.42428886698326,30.64226513999165,None,0,,sub-DDS_testrun2,ses-1main,run-1,grey,2024-10-15_11h27.24.813,VDT,2023.2.3,117.48591653778446,2024-10-15 11h27.40.887909 +0200,
