image,trials.thisRepN,trials.thisTrialN,trials.thisN,trials.thisIndex,thisRow.t,notes,WaitingForScannerTrigger.started,Vertical.started,key_resp.started,WaitingForScannerTrigger.stopped,key_resp.keys,key_resp.corr,key_resp.rt,key_resp.duration,VDT.started,PresentedLine1.started,key_resp_2.started,FixDot2.started,PresentedLine1.stopped,VDT.stopped,key_resp_2.keys,key_resp_2.corr,key_resp_2.rt,key_resp_2.duration,FixDot2.stopped,key_resp_2.stopped,participant,session,run,BG_color,date,expName,psychopyVersion,frameRate,expStart,
,,,,,,,0.005042397999204695,0.011964542994974181,0.011964542994974181,1.1734266959829256,s,0,1.1578258859808557,None,,,,,,,,,,,,,sub-SM,ses-5control,run-1,grey,2024-05-31_12h13.16.013,VDT,2023.2.3,117.4479362178115,2024-05-31 12h13.20.293727 +0200,
./images_eeg/Sphere_CW-2.25_BG-grey_stim-white.png,0,0,0,0,1.224211339984322,,,,,,,,,,1.1827229809714481,1.224211339984322,1.224211339984322,1.9226639699772932,1.9715842929726932,2.122423336986685,None,0,,,,,sub-SM,ses-5control,run-1,grey,2024-05-31_12h13.16.013,VDT,2023.2.3,117.4479362178115,2024-05-31 12h13.20.293727 +0200,
./images_eeg/Sphere_CCW-2.25_BG-grey_stim-white.png,0,1,1,1,2.1735224339936394,,,,,,,,,,2.1234469579940196,2.1807312139717396,2.1807312139717396,2.9218005929724313,2.929352023988031,3.0969195459911134,None,0,,,,,sub-SM,ses-5control,run-1,grey,2024-05-31_12h13.16.013,VDT,2023.2.3,117.4479362178115,2024-05-31 12h13.20.293727 +0200,
./images_eeg/Sphere_CW-2.25_BG-grey_stim-yellow.png,0,2,2,2,3.136952582979575,,,,,,,,,,3.097416226984933,3.1700231089780573,3.1700231089780573,3.919842785981018,3.912855303991819,4.096738524996908,['space'],0,0.5296014279883821,None,,,sub-SM,ses-5control,run-1,grey,2024-05-31_12h13.16.013,VDT,2023.2.3,117.4479362178115,2024-05-31 12h13.20.293727 +0200,
./images_eeg/Sphere_CCW-2.25_BG-grey_stim-white.png,0,3,3,3,4.140535463986453,,,,,,,,,,4.09799153599306,4.169780155993067,4.169780155993067,4.920921173994429,4.912586677994113,5.133112311974401,None,0,,,,,sub-SM,ses-5control,run-1,grey,2024-05-31_12h13.16.013,VDT,2023.2.3,117.4479362178115,2024-05-31 12h13.20.293727 +0200,
./images_eeg/Sphere_CCW-2.25_BG-grey_stim-white.png,0,4,4,4,5.186411792994477,,,,,,,,,,5.133914574980736,5.186411792994477,5.186411792994477,5.921038582979236,5.928494564985158,6.120532396977069,None,0,,,,,sub-SM,ses-5control,run-1,grey,2024-05-31_12h13.16.013,VDT,2023.2.3,117.4479362178115,2024-05-31 12h13.20.293727 +0200,
./images_eeg/Sphere_Ref_BG-grey_stim-yellow.png,0,5,5,5,6.164500762999523,,,,,,,,,,6.1210425659955945,6.178747283993289,6.178747283993289,6.920460191991879,6.920460191991879,7.129541396978311,['space'],0,0.41120837099151686,None,,,sub-SM,ses-5control,run-1,grey,2024-05-31_12h13.16.013,VDT,2023.2.3,117.4479362178115,2024-05-31 12h13.20.293727 +0200,
./images_eeg/Sphere_CCW-2.25_BG-grey_stim-white.png,0,6,6,6,7.175256857997738,,,,,,,,,,7.130430100980448,7.175256857997738,7.175256857997738,7.920724618976237,7.920724618976237,8.120927999989362,None,0,,,,,sub-SM,ses-5control,run-1,grey,2024-05-31_12h13.16.013,VDT,2023.2.3,117.4479362178115,2024-05-31 12h13.20.293727 +0200,
./images_eeg/Sphere_CCW-2.25_BG-grey_stim-white.png,0,7,7,7,8.169008881988702,,,,,,,,,,8.12151926298975,8.177487249980913,8.177487249980913,8.91886818097555,8.91886818097555,9.136354429996572,None,0,,,,,sub-SM,ses-5control,run-1,grey,2024-05-31_12h13.16.013,VDT,2023.2.3,117.4479362178115,2024-05-31 12h13.20.293727 +0200,
./images_eeg/Sphere_CW-2.25_BG-grey_stim-white.png,0,8,8,8,9.18384072498884,,,,,,,,,,9.13687460598885,9.18384072498884,9.18384072498884,9.920123195974156,9.927394555998035,10.11995088099502,None,0,,,,,sub-SM,ses-5control,run-1,grey,2024-05-31_12h13.16.013,VDT,2023.2.3,117.4479362178115,2024-05-31 12h13.20.293727 +0200,
./images_eeg/Sphere_CCW-2.25_BG-grey_stim-yellow.png,0,9,9,9,10.163530123973032,,,,,,,,,,10.120513050991576,10.177423277986236,10.177423277986236,10.919231428997591,10.919231428997591,11.11153271398507,['space'],0,0.5026645129837561,None,,,sub-SM,ses-5control,run-1,grey,2024-05-31_12h13.16.013,VDT,2023.2.3,117.4479362178115,2024-05-31 12h13.20.293727 +0200,
./images_eeg/Sphere_Ref_BG-grey_stim-white.png,0,10,10,10,11.156350053992355,,,,,,,,,,11.112525295990054,11.176847155991709,11.176847155991709,11.917710645997431,11.917710645997431,12.144261395995272,['space'],0,0.3354457219829783,None,,,sub-SM,ses-5control,run-1,grey,2024-05-31_12h13.16.013,VDT,2023.2.3,117.4479362178115,2024-05-31 12h13.20.293727 +0200,
./images_eeg/Sphere_CW-2.25_BG-grey_stim-white.png,0,11,11,11,12.190569535974646,,,,,,,,,,12.145186974987155,12.190569535974646,12.190569535974646,12.919632227974944,12.934380052000051,13.201578300999245,None,0,,,13.179705285991076,13.193667790998006,sub-SM,ses-5control,run-1,grey,2024-05-31_12h13.16.013,VDT,2023.2.3,117.4479362178115,2024-05-31 12h13.20.293727 +0200,
./images_eeg/Sphere_Ref_BG-grey_stim-yellow.png,0,12,12,12,13.247843697987264,,,,,,,,,,13.202128047996666,13.247843697987264,13.247843697987264,13.918147728982149,13.992884863982908,14.14380471399636,['space'],0,0.43643144000088796,None,,,sub-SM,ses-5control,run-1,grey,2024-05-31_12h13.16.013,VDT,2023.2.3,117.4479362178115,2024-05-31 12h13.20.293727 +0200,
./images_eeg/Sphere_Ref_BG-grey_stim-white.png,0,13,13,13,14.186271636979654,,,,,,,,,,14.144674905983265,14.186271636979654,14.186271636979654,14.917883243993856,14.933896251983242,15.126960851979675,None,0,,,,,sub-SM,ses-5control,run-1,grey,2024-05-31_12h13.16.013,VDT,2023.2.3,117.4479362178115,2024-05-31 12h13.20.293727 +0200,
./images_eeg/Sphere_CW-2.25_BG-grey_stim-white.png,0,14,14,14,15.173823150980752,,,,,,,,,,15.127790541999275,15.173823150980752,15.173823150980752,15.916677862987854,15.916677862987854,16.11747361999005,None,0,,,,,sub-SM,ses-5control,run-1,grey,2024-05-31_12h13.16.013,VDT,2023.2.3,117.4479362178115,2024-05-31 12h13.20.293727 +0200,
./images_eeg/Sphere_CW-2.25_BG-grey_stim-white.png,0,15,15,15,16.157855843979632,,,,,,,,,,16.118050687975483,16.16501346498262,16.16501346498262,16.917264683987014,16.909306128975004,17.08382793198689,None,0,,,,,sub-SM,ses-5control,run-1,grey,2024-05-31_12h13.16.013,VDT,2023.2.3,117.4479362178115,2024-05-31 12h13.20.293727 +0200,
./images_eeg/Sphere_CW-2.25_BG-grey_stim-white.png,0,16,16,16,17.124700541986385,,,,,,,,,,17.084529740997823,17.166475965990685,17.166475965990685,17.916969072975917,17.90916632299195,18.117117495974526,None,0,,,,,sub-SM,ses-5control,run-1,grey,2024-05-31_12h13.16.013,VDT,2023.2.3,117.4479362178115,2024-05-31 12h13.20.293727 +0200,
./images_eeg/Sphere_CCW-2.25_BG-grey_stim-white.png,0,17,17,17,18.16011335197254,,,,,,,,,,18.117636948998552,18.174708427977748,18.174708427977748,18.916379443980986,18.916379443980986,19.15053093797178,None,0,,,,,sub-SM,ses-5control,run-1,grey,2024-05-31_12h13.16.013,VDT,2023.2.3,117.4479362178115,2024-05-31 12h13.20.293727 +0200,
