image,trials.thisRepN,trials.thisTrialN,trials.thisN,trials.thisIndex,thisRow.t,notes,WaitingForScannerTrigger.started,Vertical.started,key_resp.started,WaitingForScannerTrigger.stopped,key_resp.keys,key_resp.corr,key_resp.rt,key_resp.duration,VDT.started,PresentedLine1.started,key_resp_2.started,FixDot2.started,PresentedLine1.stopped,VDT.stopped,key_resp_2.keys,key_resp_2.corr,FixDot2.stopped,key_resp_2.stopped,participant,session,run,BG_color,date,expName,psychopyVersion,frameRate,expStart,
,,,,,,,0.011930500040762126,0.06067450001137331,0.06067450001137331,8.552872800035402,s,0,8.487709900015034,None,,,,,,,,,,,sub-sub-test,ses-main,run-01,grey,2024-04-08_12h17.01.528,VDT,2023.2.3,60.070161965935455,2024-04-08 12h17.14.046931 +0200,
./images2/Sphere_CW-3.5_BG-grey_stim-white.png,0,0,0,0,8.709414200042374,,,,,,,,,,8.59508670005016,8.709414200042374,8.709414200042374,9.320110700035002,9.468315400008578,9.534836400009226,None,0,,,sub-sub-test,ses-main,run-01,grey,2024-04-08_12h17.01.528,VDT,2023.2.3,60.070161965935455,2024-04-08 12h17.14.046931 +0200,
./images2/Sphere_CCW-3.5_BG-grey_stim-white.png,0,1,1,1,9.568523499998264,,,,,,,,,,9.535454500000924,9.568523499998264,9.568523499998264,10.317476099997293,10.317476099997293,10.551077200041618,None,0,,,sub-sub-test,ses-main,run-01,grey,2024-04-08_12h17.01.528,VDT,2023.2.3,60.070161965935455,2024-04-08 12h17.14.046931 +0200,
./images2/Sphere_Ref_BG-grey_stim-white.png,0,2,2,2,10.639428900030907,,,,,,,,,,10.551517700019758,10.639428900030907,10.639428900030907,11.318081500008702,11.399994600040372,11.516726200003177,None,0,,,sub-sub-test,ses-main,run-01,grey,2024-04-08_12h17.01.528,VDT,2023.2.3,60.070161965935455,2024-04-08 12h17.14.046931 +0200,
./images2/Sphere_CCW-3.5_BG-grey_stim-white.png,0,3,3,3,11.5393841000041,,,,,,,,,,11.51714340003673,11.550148900016211,11.550148900016211,12.315487200045027,12.315487200045027,12.548968600051012,None,0,,,sub-sub-test,ses-main,run-01,grey,2024-04-08_12h17.01.528,VDT,2023.2.3,60.070161965935455,2024-04-08 12h17.14.046931 +0200,
./images2/Sphere_CCW-3.5_BG-grey_stim-white.png,0,4,4,4,12.577365700039081,,,,,,,,,,12.549505100003444,12.577365700039081,12.577365700039081,13.316003500018269,13.331369900028221,13.547854000004008,None,0,,,sub-sub-test,ses-main,run-01,grey,2024-04-08_12h17.01.528,VDT,2023.2.3,60.070161965935455,2024-04-08 12h17.14.046931 +0200,
./images2/Sphere_Ref_BG-grey_stim-white.png,0,5,5,5,13.573024500044994,,,,,,,,,,13.548330000019632,13.573024500044994,13.573024500044994,14.315831500047352,14.33036429999629,14.513809900032356,None,0,,,sub-sub-test,ses-main,run-01,grey,2024-04-08_12h17.01.528,VDT,2023.2.3,60.070161965935455,2024-04-08 12h17.14.046931 +0200,
./images2/Sphere_CCW-3.5_BG-grey_stim-white.png,0,6,6,6,14.535648800025228,,,,,,,,,,14.51421760005178,14.547296300006565,14.547296300006565,15.312929700012319,15.294475400005467,15.496161000046413,None,0,,,sub-sub-test,ses-main,run-01,grey,2024-04-08_12h17.01.528,VDT,2023.2.3,60.070161965935455,2024-04-08 12h17.14.046931 +0200,
./images2/Sphere_CW-3.5_BG-grey_stim-white.png,0,7,7,7,15.522927900019567,,,,,,,,,,15.496734300046228,15.563008400029503,15.563008400029503,16.313084000023082,16.328580800036434,16.52852500003064,None,0,,,sub-sub-test,ses-main,run-01,grey,2024-04-08_12h17.01.528,VDT,2023.2.3,60.070161965935455,2024-04-08 12h17.14.046931 +0200,
./images2/Sphere_CCW-3.5_BG-grey_stim-white.png,0,8,8,8,16.556530400004704,,,,,,,,,,16.52897970000049,16.556530400004704,16.556530400004704,17.310818500001915,17.310818500001915,17.544244200049434,None,0,,,sub-sub-test,ses-main,run-01,grey,2024-04-08_12h17.01.528,VDT,2023.2.3,60.070161965935455,2024-04-08 12h17.14.046931 +0200,
./images2/Sphere_CW-3.5_BG-grey_stim-white.png,0,9,9,9,17.56894020002801,,,,,,,,,,17.54466750001302,17.56894020002801,17.56894020002801,18.311375300050713,18.326933200005442,18.493514400033746,None,0,,,sub-sub-test,ses-main,run-01,grey,2024-04-08_12h17.01.528,VDT,2023.2.3,60.070161965935455,2024-04-08 12h17.14.046931 +0200,
./images2/Sphere_Ref_BG-grey_stim-white.png,0,10,10,10,18.52354780002497,,,,,,,,,,18.494569900038186,18.560401900031138,18.560401900031138,19.310657900001388,19.325827200023923,19.525781500036828,None,0,,,sub-sub-test,ses-main,run-01,grey,2024-04-08_12h17.01.528,VDT,2023.2.3,60.070161965935455,2024-04-08 12h17.14.046931 +0200,
./images2/Sphere_CW-3.5_BG-grey_stim-white.png,0,11,11,11,19.555478500027675,,,,,,,,,,19.526320500008296,19.555478500027675,19.555478500027675,20.308185500034597,20.308185500034597,20.47515030001523,None,0,,,sub-sub-test,ses-main,run-01,grey,2024-04-08_12h17.01.528,VDT,2023.2.3,60.070161965935455,2024-04-08 12h17.14.046931 +0200,
./images2/Sphere_CCW-3.5_BG-grey_stim-white.png,0,12,12,12,20.508050500007812,,,,,,,,,,20.476837099995464,20.558304100006353,20.558304100006353,21.30846140003996,21.32400650001364,21.490430900012143,None,0,,,sub-sub-test,ses-main,run-01,grey,2024-04-08_12h17.01.528,VDT,2023.2.3,60.070161965935455,2024-04-08 12h17.14.046931 +0200,
./images2/Sphere_CCW-3.5_BG-grey_stim-white.png,0,13,13,13,21.515032900031656,,,,,,,,,,21.49096379999537,21.557282400026452,21.557282400026452,22.306392600003164,22.306392600003164,22.554807000036817,None,0,22.55419350002194,22.583750699996017,sub-sub-test,ses-main,run-01,grey,2024-04-08_12h17.01.528,VDT,2023.2.3,60.070161965935455,2024-04-08 12h17.14.046931 +0200,
./images2/Sphere_CW-3.5_BG-grey_stim-white.png,0,14,14,14,22.583750699996017,,,,,,,,,,22.55531930003781,22.583750699996017,22.583750699996017,23.306773000047542,23.338690100004897,23.56999640003778,None,0,23.569879700022284,,sub-sub-test,ses-main,run-01,grey,2024-04-08_12h17.01.528,VDT,2023.2.3,60.070161965935455,2024-04-08 12h17.14.046931 +0200,
./images2/Sphere_Ref_BG-grey_stim-white.png,0,15,15,15,23.598157400032505,,,,,,,,,,23.570520500012208,23.598157400032505,23.598157400032505,24.305638000019826,24.354389500047546,24.487608600000385,None,0,,,sub-sub-test,ses-main,run-01,grey,2024-04-08_12h17.01.528,VDT,2023.2.3,60.070161965935455,2024-04-08 12h17.14.046931 +0200,
./images2/Sphere_CW-3.5_BG-grey_stim-white.png,0,16,16,16,24.514515100046992,,,,,,,,,,24.4881893999991,24.554506900021806,24.554506900021806,25.30383750004694,25.30383750004694,25.55255840002792,None,0,25.551556900027208,25.579892400011886,sub-sub-test,ses-main,run-01,grey,2024-04-08_12h17.01.528,VDT,2023.2.3,60.070161965935455,2024-04-08 12h17.14.046931 +0200,
./images2/Sphere_CW-3.5_BG-grey_stim-white.png,0,17,17,17,25.579892400011886,,,,,,,,,,25.553714400040917,25.579892400011886,25.579892400011886,26.30385710002156,26.335758000030182,26.519011299998965,None,0,,,sub-sub-test,ses-main,run-01,grey,2024-04-08_12h17.01.528,VDT,2023.2.3,60.070161965935455,2024-04-08 12h17.14.046931 +0200,
./images2/Sphere_CW-3.5_BG-grey_stim-white.png,1,0,18,0,26.54824010003358,,,,,,,,,,26.519588500028476,26.54824010003358,26.54824010003358,27.3184401000035,27.29985420004232,27.552001200034283,None,0,27.579335400019772,27.5514436000376,sub-sub-test,ses-main,run-01,grey,2024-04-08_12h17.01.528,VDT,2023.2.3,60.070161965935455,2024-04-08 12h17.14.046931 +0200,
./images2/Sphere_CCW-3.5_BG-grey_stim-white.png,1,1,19,1,27.579335400019772,,,,,,,,,,27.552430600044318,27.579335400019772,27.579335400019772,28.318647800013423,28.334013100015,28.517266100039706,None,0,,,sub-sub-test,ses-main,run-01,grey,2024-04-08_12h17.01.528,VDT,2023.2.3,60.070161965935455,2024-04-08 12h17.14.046931 +0200,
./images2/Sphere_Ref_BG-grey_stim-white.png,1,2,20,2,28.54432220000308,,,,,,,,,,28.517693100031465,28.550296400033403,28.550296400033403,29.316293000010774,29.298011900042184,29.549939100048505,None,0,29.579912100045476,29.549503400048707,sub-sub-test,ses-main,run-01,grey,2024-04-08_12h17.01.528,VDT,2023.2.3,60.070161965935455,2024-04-08 12h17.14.046931 +0200,
./images2/Sphere_CCW-3.5_BG-grey_stim-white.png,1,3,21,3,29.579912100045476,,,,,,,,,,29.550347300013527,29.579912100045476,29.579912100045476,30.316696599998977,30.33211720001418,30.498588000016753,None,0,,,sub-sub-test,ses-main,run-01,grey,2024-04-08_12h17.01.528,VDT,2023.2.3,60.070161965935455,2024-04-08 12h17.14.046931 +0200,
./images2/Sphere_CCW-3.5_BG-grey_stim-white.png,1,4,22,4,30.520467700029258,,,,,,,,,,30.499024200020358,30.565313099999912,30.565313099999912,31.31468050001422,31.31468050001422,31.464688300038688,None,0,,,sub-sub-test,ses-main,run-01,grey,2024-04-08_12h17.01.528,VDT,2023.2.3,60.070161965935455,2024-04-08 12h17.14.046931 +0200,
./images2/Sphere_Ref_BG-grey_stim-white.png,1,5,23,5,31.490605200000573,,,,,,,,,,31.465212500013877,31.564772200013977,31.564772200013977,32.3148005999974,32.33016020001378,32.530067300016526,None,0,,,sub-sub-test,ses-main,run-01,grey,2024-04-08_12h17.01.528,VDT,2023.2.3,60.070161965935455,2024-04-08 12h17.14.046931 +0200,
./images2/Sphere_CCW-3.5_BG-grey_stim-white.png,1,6,24,6,32.556389400037006,,,,,,,,,,32.53055660001701,32.556389400037006,32.556389400037006,33.31272230000468,33.31272230000468,33.51280120003503,None,0,,,sub-sub-test,ses-main,run-01,grey,2024-04-08_12h17.01.528,VDT,2023.2.3,60.070161965935455,2024-04-08 12h17.14.046931 +0200,
./images2/Sphere_CW-3.5_BG-grey_stim-white.png,1,7,25,7,33.53830320003908,,,,,,,,,,33.51399390003644,33.54605720000109,33.54605720000109,34.3118374000187,34.29314940003678,34.52824720001081,None,0,,,sub-sub-test,ses-main,run-01,grey,2024-04-08_12h17.01.528,VDT,2023.2.3,60.070161965935455,2024-04-08 12h17.14.046931 +0200,
./images2/Sphere_CCW-3.5_BG-grey_stim-white.png,1,8,26,8,34.558694100007415,,,,,,,,,,34.52881690004142,34.558694100007415,34.558694100007415,35.310813100019004,35.310813100019004,35.51089650002541,None,0,,,sub-sub-test,ses-main,run-01,grey,2024-04-08_12h17.01.528,VDT,2023.2.3,60.070161965935455,2024-04-08 12h17.14.046931 +0200,
./images2/Sphere_CW-3.5_BG-grey_stim-white.png,1,9,27,9,35.53615020000143,,,,,,,,,,35.511400200019125,35.54452779999701,35.54452779999701,36.309813800035045,36.309813800035045,36.509786000009626,None,0,,,sub-sub-test,ses-main,run-01,grey,2024-04-08_12h17.01.528,VDT,2023.2.3,60.070161965935455,2024-04-08 12h17.14.046931 +0200,
./images2/Sphere_Ref_BG-grey_stim-white.png,1,10,28,10,36.542882000037935,,,,,,,,,,36.51077750005061,36.547109300037846,36.547109300037846,37.308850300032645,37.308850300032645,37.49224760005018,None,0,,,sub-sub-test,ses-main,run-01,grey,2024-04-08_12h17.01.528,VDT,2023.2.3,60.070161965935455,2024-04-08 12h17.14.046931 +0200,
./images2/Sphere_CW-3.5_BG-grey_stim-white.png,1,11,29,11,37.5198927000165,,,,,,,,,,37.4927699000109,37.55925470002694,37.55925470002694,38.309034800040536,38.3247727000271,38.55823710002005,None,0,38.589538000000175,38.589538000000175,sub-sub-test,ses-main,run-01,grey,2024-04-08_12h17.01.528,VDT,2023.2.3,60.070161965935455,2024-04-08 12h17.14.046931 +0200,
./images2/Sphere_CCW-3.5_BG-grey_stim-white.png,1,12,30,12,38.589538000000175,,,,,,,,,,38.558779900020454,38.589538000000175,38.589538000000175,39.30859700002475,39.34075470000971,39.49075640004594,None,0,,,sub-sub-test,ses-main,run-01,grey,2024-04-08_12h17.01.528,VDT,2023.2.3,60.070161965935455,2024-04-08 12h17.14.046931 +0200,
./images2/Sphere_CCW-3.5_BG-grey_stim-white.png,1,13,31,13,39.52029480005149,,,,,,,,,,39.491963000036776,39.55739030003315,39.55739030003315,40.307290700031444,40.32271460001357,40.489362200023606,None,0,,,sub-sub-test,ses-main,run-01,grey,2024-04-08_12h17.01.528,VDT,2023.2.3,60.070161965935455,2024-04-08 12h17.14.046931 +0200,
./images2/Sphere_CW-3.5_BG-grey_stim-white.png,1,14,32,14,40.51697590004187,,,,,,,,,,40.48994880000828,40.556237300042994,40.556237300042994,41.306221800041385,41.321777900040615,41.47155990003375,None,0,,,sub-sub-test,ses-main,run-01,grey,2024-04-08_12h17.01.528,VDT,2023.2.3,60.070161965935455,2024-04-08 12h17.14.046931 +0200,
./images2/Sphere_Ref_BG-grey_stim-white.png,1,15,33,15,41.49411730002612,,,,,,,,,,41.47198860003846,41.55544560000999,41.55544560000999,42.30549210001482,42.321148100018036,42.5212836000137,None,0,,,sub-sub-test,ses-main,run-01,grey,2024-04-08_12h17.01.528,VDT,2023.2.3,60.070161965935455,2024-04-08 12h17.14.046931 +0200,
./images2/Sphere_CW-3.5_BG-grey_stim-white.png,1,16,34,16,42.55501000001095,,,,,,,,,,42.52196540002478,42.55501000001095,42.55501000001095,43.30496780003887,43.32013550004922,43.55362320004497,None,0,43.58482330001425,43.58482330001425,sub-sub-test,ses-main,run-01,grey,2024-04-08_12h17.01.528,VDT,2023.2.3,60.070161965935455,2024-04-08 12h17.14.046931 +0200,
./images2/Sphere_CW-3.5_BG-grey_stim-white.png,1,17,35,17,43.58482330001425,,,,,,,,,,43.554065600037575,43.58482330001425,43.58482330001425,44.303509999997914,44.33553020004183,44.53561790002277,None,0,,,sub-sub-test,ses-main,run-01,grey,2024-04-08_12h17.01.528,VDT,2023.2.3,60.070161965935455,2024-04-08 12h17.14.046931 +0200,
./images2/Sphere_CW-3.5_BG-grey_stim-white.png,2,0,36,0,44.56117450003512,,,,,,,,,,44.536037700017914,44.56117450003512,44.56117450003512,45.31805170001462,45.31805170001462,45.551365400024224,None,0,,,sub-sub-test,ses-main,run-01,grey,2024-04-08_12h17.01.528,VDT,2023.2.3,60.070161965935455,2024-04-08 12h17.14.046931 +0200,
./images2/Sphere_CCW-3.5_BG-grey_stim-white.png,2,1,37,1,45.5803322000429,,,,,,,,,,45.55191580002429,45.5803322000429,45.5803322000429,46.31845360004809,46.33393130003242,46.533982300024945,None,0,,,sub-sub-test,ses-main,run-01,grey,2024-04-08_12h17.01.528,VDT,2023.2.3,60.070161965935455,2024-04-08 12h17.14.046931 +0200,
./images2/Sphere_Ref_BG-grey_stim-white.png,2,2,38,2,46.56038030004129,,,,,,,,,,46.53447660000529,46.56038030004129,46.56038030004129,47.31620640004985,47.31620640004985,47.46621470001992,None,0,,,sub-sub-test,ses-main,run-01,grey,2024-04-08_12h17.01.528,VDT,2023.2.3,60.070161965935455,2024-04-08 12h17.14.046931 +0200,
./images2/Sphere_CCW-3.5_BG-grey_stim-white.png,2,3,39,3,47.48855020001065,,,,,,,,,,47.46664040000178,47.56632159999572,47.56632159999572,48.31646520004142,48.33183690003352,48.531826700025704,None,0,,,sub-sub-test,ses-main,run-01,grey,2024-04-08_12h17.01.528,VDT,2023.2.3,60.070161965935455,2024-04-08 12h17.14.046931 +0200,
./images2/Sphere_CCW-3.5_BG-grey_stim-white.png,2,4,40,4,48.55920220003463,,,,,,,,,,48.53240210004151,48.55920220003463,48.55920220003463,49.31447860004846,49.31447860004846,49.53096060000826,None,0,,,sub-sub-test,ses-main,run-01,grey,2024-04-08_12h17.01.528,VDT,2023.2.3,60.070161965935455,2024-04-08 12h17.14.046931 +0200,
./images2/Sphere_Ref_BG-grey_stim-white.png,2,5,41,5,49.55496080004377,,,,,,,,,,49.531421400024556,49.55496080004377,49.55496080004377,50.31350190000376,50.31350190000376,50.53020670003025,None,0,,,sub-sub-test,ses-main,run-01,grey,2024-04-08_12h17.01.528,VDT,2023.2.3,60.070161965935455,2024-04-08 12h17.14.046931 +0200,
./images2/Sphere_CCW-3.5_BG-grey_stim-white.png,2,6,42,6,50.56090540002333,,,,,,,,,,50.53115290001733,50.56090540002333,50.56090540002333,51.31255220004823,51.31255220004823,51.54628040001262,None,0,51.5703953000484,51.5703953000484,sub-sub-test,ses-main,run-01,grey,2024-04-08_12h17.01.528,VDT,2023.2.3,60.070161965935455,2024-04-08 12h17.14.046931 +0200,
./images2/Sphere_CW-3.5_BG-grey_stim-white.png,2,7,43,7,51.5703953000484,,,,,,,,,,51.5466556000174,51.5703953000484,51.5703953000484,52.312662500014994,52.328081400017254,52.544782700017095,None,0,,,sub-sub-test,ses-main,run-01,grey,2024-04-08_12h17.01.528,VDT,2023.2.3,60.070161965935455,2024-04-08 12h17.14.046931 +0200,
./images2/Sphere_CCW-3.5_BG-grey_stim-white.png,2,8,44,8,52.57430979999481,,,,,,,,,,52.545309700013604,52.57430979999481,52.57430979999481,53.3118669000105,53.32710670004599,53.49386760004563,None,0,,,sub-sub-test,ses-main,run-01,grey,2024-04-08_12h17.01.528,VDT,2023.2.3,60.070161965935455,2024-04-08 12h17.14.046931 +0200,
./images2/Sphere_CW-3.5_BG-grey_stim-white.png,2,9,45,9,53.51702440000372,,,,,,,,,,53.49440510000568,53.5605575000518,53.5605575000518,54.31089380005142,54.32633559999522,54.509812300035264,None,0,,,sub-sub-test,ses-main,run-01,grey,2024-04-08_12h17.01.528,VDT,2023.2.3,60.070161965935455,2024-04-08 12h17.14.046931 +0200,
./images2/Sphere_Ref_BG-grey_stim-white.png,2,10,46,10,54.531377300038,,,,,,,,,,54.51022880000528,54.55970140005229,54.55970140005229,55.3090561000281,55.3090561000281,55.49221060000127,None,0,,,sub-sub-test,ses-main,run-01,grey,2024-04-08_12h17.01.528,VDT,2023.2.3,60.070161965935455,2024-04-08 12h17.14.046931 +0200,
./images2/Sphere_CW-3.5_BG-grey_stim-white.png,2,11,47,11,55.515101000026334,,,,,,,,,,55.492666400037706,55.558938100002706,55.558938100002706,56.30877030000556,56.324407800042536,56.50762800005032,None,0,,,sub-sub-test,ses-main,run-01,grey,2024-04-08_12h17.01.528,VDT,2023.2.3,60.070161965935455,2024-04-08 12h17.14.046931 +0200,
./images2/Sphere_CCW-3.5_BG-grey_stim-white.png,2,12,48,12,56.52960150002036,,,,,,,,,,56.508060200023465,56.55776870000409,56.55776870000409,57.30693110002903,57.30693110002903,57.555281900044065,None,0,57.55483370000729,57.57968790002633,sub-sub-test,ses-main,run-01,grey,2024-04-08_12h17.01.528,VDT,2023.2.3,60.070161965935455,2024-04-08 12h17.14.046931 +0200,
./images2/Sphere_CCW-3.5_BG-grey_stim-white.png,2,13,49,13,57.57968790002633,,,,,,,,,,57.55569720000494,57.57968790002633,57.57968790002633,58.307181300013326,58.33910550002474,58.52258470002562,None,0,,,sub-sub-test,ses-main,run-01,grey,2024-04-08_12h17.01.528,VDT,2023.2.3,60.070161965935455,2024-04-08 12h17.14.046931 +0200,
./images2/Sphere_CW-3.5_BG-grey_stim-white.png,2,14,50,14,58.55173070001183,,,,,,,,,,58.52310170000419,58.55173070001183,58.55173070001183,59.305099999997765,59.305099999997765,59.50505860004341,None,0,,,sub-sub-test,ses-main,run-01,grey,2024-04-08_12h17.01.528,VDT,2023.2.3,60.070161965935455,2024-04-08 12h17.14.046931 +0200,
./images2/Sphere_Ref_BG-grey_stim-white.png,2,15,51,15,59.531379399995785,,,,,,,,,,59.50558880000608,59.55518890003441,59.55518890003441,60.30508230003761,60.32055850001052,60.520711400022265,None,0,,,sub-sub-test,ses-main,run-01,grey,2024-04-08_12h17.01.528,VDT,2023.2.3,60.070161965935455,2024-04-08 12h17.14.046931 +0200,
./images2/Sphere_CW-3.5_BG-grey_stim-white.png,2,16,52,16,60.55301110004075,,,,,,,,,,60.52118160005193,60.55301110004075,60.55301110004075,61.30295979999937,61.30295979999937,61.503066800010856,None,0,,,sub-sub-test,ses-main,run-01,grey,2024-04-08_12h17.01.528,VDT,2023.2.3,60.070161965935455,2024-04-08 12h17.14.046931 +0200,
./images2/Sphere_CW-3.5_BG-grey_stim-white.png,2,17,53,17,61.52665750001324,,,,,,,,,,61.50352710002335,61.56977870000992,61.56977870000992,62.303412100009155,62.31867810001131,62.53533590002917,None,0,,,sub-sub-test,ses-main,run-01,grey,2024-04-08_12h17.01.528,VDT,2023.2.3,60.070161965935455,2024-04-08 12h17.14.046931 +0200,
./images2/Sphere_CW-3.5_BG-grey_stim-white.png,3,0,54,0,62.56072910001967,,,,,,,,,,62.535821500001475,62.56072910001967,62.56072910001967,63.31812380003976,63.31812380003976,63.51800160005223,None,0,,,sub-sub-test,ses-main,run-01,grey,2024-04-08_12h17.01.528,VDT,2023.2.3,60.070161965935455,2024-04-08 12h17.14.046931 +0200,
./images2/Sphere_CCW-3.5_BG-grey_stim-white.png,3,1,55,1,63.54043720004847,,,,,,,,,,63.51843779999763,63.55159930000082,63.55159930000082,64.31696100003319,64.31696100003319,64.55057060002582,None,0,64.57863900001394,64.57863900001394,sub-sub-test,ses-main,run-01,grey,2024-04-08_12h17.01.528,VDT,2023.2.3,60.070161965935455,2024-04-08 12h17.14.046931 +0200,
./images2/Sphere_Ref_BG-grey_stim-white.png,3,2,56,2,64.57863900001394,,,,,,,,,,64.55104059999576,64.57863900001394,64.57863900001394,65.31718610000098,65.33261149999453,65.53263100003824,None,0,,,sub-sub-test,ses-main,run-01,grey,2024-04-08_12h17.01.528,VDT,2023.2.3,60.070161965935455,2024-04-08 12h17.14.046931 +0200,
./images2/Sphere_CCW-3.5_BG-grey_stim-white.png,3,3,57,3,65.5649217000464,,,,,,,,,,65.53317060001427,65.5649217000464,65.5649217000464,66.31519500003196,66.31519500003196,66.54860100004589,None,0,66.57588580000447,66.57588580000447,sub-sub-test,ses-main,run-01,grey,2024-04-08_12h17.01.528,VDT,2023.2.3,60.070161965935455,2024-04-08 12h17.14.046931 +0200,
./images2/Sphere_CCW-3.5_BG-grey_stim-white.png,3,4,58,4,66.57588580000447,,,,,,,,,,66.54900570004247,66.57588580000447,66.57588580000447,67.3154732999974,67.33081300003687,67.49758160003694,None,0,,,sub-sub-test,ses-main,run-01,grey,2024-04-08_12h17.01.528,VDT,2023.2.3,60.070161965935455,2024-04-08 12h17.14.046931 +0200,
./images2/Sphere_Ref_BG-grey_stim-white.png,3,5,59,5,67.52156380005181,,,,,,,,,,67.49806760001229,67.56428690004395,67.56428690004395,68.31423930003075,68.32970450003631,68.47971790004522,None,0,,,sub-sub-test,ses-main,run-01,grey,2024-04-08_12h17.01.528,VDT,2023.2.3,60.070161965935455,2024-04-08 12h17.14.046931 +0200,
./images2/Sphere_CCW-3.5_BG-grey_stim-white.png,3,6,60,6,68.50277030002326,,,,,,,,,,68.48013959999662,68.56319300003815,68.56319300003815,69.31239100004314,69.31239100004314,69.49549310002476,None,0,,,sub-sub-test,ses-main,run-01,grey,2024-04-08_12h17.01.528,VDT,2023.2.3,60.070161965935455,2024-04-08 12h17.14.046931 +0200,
./images2/Sphere_CW-3.5_BG-grey_stim-white.png,3,7,61,7,69.51843360002385,,,,,,,,,,69.49592090002261,69.56225310004083,69.56225310004083,70.31128690001788,70.31128690001788,70.47801580000669,None,0,,,sub-sub-test,ses-main,run-01,grey,2024-04-08_12h17.01.528,VDT,2023.2.3,60.070161965935455,2024-04-08 12h17.14.046931 +0200,
./images2/Sphere_CCW-3.5_BG-grey_stim-white.png,3,8,62,8,70.50131920003332,,,,,,,,,,70.47852230002172,70.5613527999958,70.5613527999958,71.31055880000349,71.31055880000349,71.51040450000437,None,0,,,sub-sub-test,ses-main,run-01,grey,2024-04-08_12h17.01.528,VDT,2023.2.3,60.070161965935455,2024-04-08 12h17.14.046931 +0200,
./images2/Sphere_CW-3.5_BG-grey_stim-white.png,3,9,63,9,71.53301460004877,,,,,,,,,,71.51089740003226,71.56041140004527,71.56041140004527,72.3105994000216,72.32604850002099,72.52594230003888,None,0,,,sub-sub-test,ses-main,run-01,grey,2024-04-08_12h17.01.528,VDT,2023.2.3,60.070161965935455,2024-04-08 12h17.14.046931 +0200,
./images2/Sphere_Ref_BG-grey_stim-white.png,3,10,64,10,72.55380710004829,,,,,,,,,,72.52647240000078,72.55380710004829,72.55380710004829,73.30851550004445,73.30851550004445,73.54242480004905,None,0,73.56878359999973,73.56878359999973,sub-sub-test,ses-main,run-01,grey,2024-04-08_12h17.01.528,VDT,2023.2.3,60.070161965935455,2024-04-08 12h17.14.046931 +0200,
./images2/Sphere_CW-3.5_BG-grey_stim-white.png,3,11,65,11,73.56878359999973,,,,,,,,,,73.54332930000965,73.56878359999973,73.56878359999973,74.30879710003501,74.32411810004851,74.55744260002393,None,0,,,sub-sub-test,ses-main,run-01,grey,2024-04-08_12h17.01.528,VDT,2023.2.3,60.070161965935455,2024-04-08 12h17.14.046931 +0200,
./images2/Sphere_CCW-3.5_BG-grey_stim-white.png,3,12,66,12,74.58256470004562,,,,,,,,,,74.55789430002915,74.58256470004562,74.58256470004562,75.30827520001912,75.34002190001775,75.50687510002172,None,0,,,sub-sub-test,ses-main,run-01,grey,2024-04-08_12h17.01.528,VDT,2023.2.3,60.070161965935455,2024-04-08 12h17.14.046931 +0200,
./images2/Sphere_CCW-3.5_BG-grey_stim-white.png,3,13,67,13,75.53473690000828,,,,,,,,,,75.50786730000982,75.55669580004178,75.55669580004178,76.30673670000397,76.32236560003366,76.55606260005152,None,0,76.58484570001019,76.58484570001019,sub-sub-test,ses-main,run-01,grey,2024-04-08_12h17.01.528,VDT,2023.2.3,60.070161965935455,2024-04-08 12h17.14.046931 +0200,
./images2/Sphere_CW-3.5_BG-grey_stim-white.png,3,14,68,14,76.58484570001019,,,,,,,,,,76.55665320000844,76.58484570001019,76.58484570001019,77.30611200002022,77.33817699999781,77.48802340001566,None,0,,,sub-sub-test,ses-main,run-01,grey,2024-04-08_12h17.01.528,VDT,2023.2.3,60.070161965935455,2024-04-08 12h17.14.046931 +0200,
./images2/Sphere_Ref_BG-grey_stim-white.png,3,15,69,15,77.51434700004756,,,,,,,,,,77.48858930001734,77.55468250002014,77.55468250002014,78.30362910003169,78.30362910003169,78.55194790003588,None,0,78.55183450004552,,sub-sub-test,ses-main,run-01,grey,2024-04-08_12h17.01.528,VDT,2023.2.3,60.070161965935455,2024-04-08 12h17.14.046931 +0200,
./images2/Sphere_CW-3.5_BG-grey_stim-white.png,3,16,70,16,78.5798000000068,,,,,,,,,,78.5524516000296,78.5798000000068,78.5798000000068,79.30427190003684,79.33624610002153,79.53615240001818,None,0,,,sub-sub-test,ses-main,run-01,grey,2024-04-08_12h17.01.528,VDT,2023.2.3,60.070161965935455,2024-04-08 12h17.14.046931 +0200,
./images2/Sphere_CW-3.5_BG-grey_stim-white.png,3,17,71,17,79.56106060004095,,,,,,,,,,79.5365891000256,79.56106060004095,79.56106060004095,80.3186577000306,80.3186577000306,80.55222150002373,None,0,80.57693229999859,80.57693229999859,sub-sub-test,ses-main,run-01,grey,2024-04-08_12h17.01.528,VDT,2023.2.3,60.070161965935455,2024-04-08 12h17.14.046931 +0200,
./images2/Sphere_CW-3.5_BG-grey_stim-white.png,4,0,72,0,80.57693229999859,,,,,,,,,,80.5526538999984,80.57693229999859,80.57693229999859,81.31894379999721,81.3341699000448,81.5675819000462,None,0,,,sub-sub-test,ses-main,run-01,grey,2024-04-08_12h17.01.528,VDT,2023.2.3,60.070161965935455,2024-04-08 12h17.14.046931 +0200,
./images2/Sphere_CCW-3.5_BG-grey_stim-white.png,4,1,73,1,81.59371600003215,,,,,,,,,,81.56804110005032,81.59371600003215,81.59371600003215,82.31808350002393,82.34996650001267,82.48335370002314,None,0,,,sub-sub-test,ses-main,run-01,grey,2024-04-08_12h17.01.528,VDT,2023.2.3,60.070161965935455,2024-04-08 12h17.14.046931 +0200,
./images2/Sphere_Ref_BG-grey_stim-white.png,4,2,74,2,82.50531130004674,,,,,,,,,,82.48376350000035,82.56683020002674,82.56683020002674,83.31613970000762,83.31613970000762,83.53579460002948,None,0,,,sub-sub-test,ses-main,run-01,grey,2024-04-08_12h17.01.528,VDT,2023.2.3,60.070161965935455,2024-04-08 12h17.14.046931 +0200,
./images2/Sphere_CCW-3.5_BG-grey_stim-white.png,4,3,75,3,83.56234770000447,,,,,,,,,,83.53619870002149,83.56234770000447,83.56234770000447,84.31467500003055,84.31467500003055,84.54922380001517,None,0,,,sub-sub-test,ses-main,run-01,grey,2024-04-08_12h17.01.528,VDT,2023.2.3,60.070161965935455,2024-04-08 12h17.14.046931 +0200,
./images2/Sphere_CCW-3.5_BG-grey_stim-white.png,4,4,76,4,84.57389090000652,,,,,,,,,,84.54966910002986,84.57389090000652,84.57389090000652,85.31525680003688,85.33060640003532,85.5472706000437,None,0,,,sub-sub-test,ses-main,run-01,grey,2024-04-08_12h17.01.528,VDT,2023.2.3,60.070161965935455,2024-04-08 12h17.14.046931 +0200,
./images2/Sphere_Ref_BG-grey_stim-white.png,4,5,77,5,85.57421819999581,,,,,,,,,,85.54767210001592,85.57421819999581,85.57421819999581,86.31419890001416,86.32970990001922,86.52963510004338,None,0,,,sub-sub-test,ses-main,run-01,grey,2024-04-08_12h17.01.528,VDT,2023.2.3,60.070161965935455,2024-04-08 12h17.14.046931 +0200,
./images2/Sphere_CCW-3.5_BG-grey_stim-white.png,4,6,78,6,86.55919370002812,,,,,,,,,,86.53012440004386,86.55919370002812,86.55919370002812,87.3123378000455,87.3123378000455,87.52884240000276,None,0,,,sub-sub-test,ses-main,run-01,grey,2024-04-08_12h17.01.528,VDT,2023.2.3,60.070161965935455,2024-04-08 12h17.14.046931 +0200,
./images2/Sphere_CW-3.5_BG-grey_stim-white.png,4,7,79,7,87.55448370001977,,,,,,,,,,87.52927520003868,87.55448370001977,87.55448370001977,88.31099900003755,88.31099900003755,88.54466569999931,None,0,88.56980769999791,88.56980769999791,sub-sub-test,ses-main,run-01,grey,2024-04-08_12h17.01.528,VDT,2023.2.3,60.070161965935455,2024-04-08 12h17.14.046931 +0200,
./images2/Sphere_CCW-3.5_BG-grey_stim-white.png,4,8,80,8,88.56980769999791,,,,,,,,,,88.54509790003067,88.56980769999791,88.56980769999791,89.3114470000146,89.32700210000621,89.4935924000456,None,0,,,sub-sub-test,ses-main,run-01,grey,2024-04-08_12h17.01.528,VDT,2023.2.3,60.070161965935455,2024-04-08 12h17.14.046931 +0200,
./images2/Sphere_CW-3.5_BG-grey_stim-white.png,4,9,81,9,89.51577680004993,,,,,,,,,,89.49400629999582,89.56006350001553,89.56006350001553,90.30908650002675,90.30908650002675,90.52564820001135,None,0,,,sub-sub-test,ses-main,run-01,grey,2024-04-08_12h17.01.528,VDT,2023.2.3,60.070161965935455,2024-04-08 12h17.14.046931 +0200,
./images2/Sphere_Ref_BG-grey_stim-white.png,4,10,82,10,90.55735390004702,,,,,,,,,,90.5261042000493,90.55735390004702,90.55735390004702,91.3087014000048,91.3087014000048,91.50839550001547,None,0,,,sub-sub-test,ses-main,run-01,grey,2024-04-08_12h17.01.528,VDT,2023.2.3,60.070161965935455,2024-04-08 12h17.14.046931 +0200,
./images2/Sphere_CW-3.5_BG-grey_stim-white.png,4,11,83,11,91.53257700003451,,,,,,,,,,91.50882320001256,91.55869430000894,91.55869430000894,92.30852449999657,92.32388540002285,92.52399900002638,None,0,,,sub-sub-test,ses-main,run-01,grey,2024-04-08_12h17.01.528,VDT,2023.2.3,60.070161965935455,2024-04-08 12h17.14.046931 +0200,
./images2/Sphere_CCW-3.5_BG-grey_stim-white.png,4,12,84,12,92.55116220004857,,,,,,,,,,92.52440570003819,92.55116220004857,92.55116220004857,93.30621430004248,93.30621430004248,93.50632490002317,None,0,,,sub-sub-test,ses-main,run-01,grey,2024-04-08_12h17.01.528,VDT,2023.2.3,60.070161965935455,2024-04-08 12h17.14.046931 +0200,
./images2/Sphere_CCW-3.5_BG-grey_stim-white.png,4,13,85,13,93.53542020003079,,,,,,,,,,93.50688130001072,93.53953870001715,93.53953870001715,94.30583920003846,94.28727830003481,94.53878420003457,None,0,,94.53868749999674,sub-sub-test,ses-main,run-01,grey,2024-04-08_12h17.01.528,VDT,2023.2.3,60.070161965935455,2024-04-08 12h17.14.046931 +0200,
./images2/Sphere_CW-3.5_BG-grey_stim-white.png,4,14,86,14,94.56543290003901,,,,,,,,,,94.53920370002743,94.56543290003901,94.56543290003901,95.30590900004609,95.32133540004725,95.53795580001315,None,0,,,sub-sub-test,ses-main,run-01,grey,2024-04-08_12h17.01.528,VDT,2023.2.3,60.070161965935455,2024-04-08 12h17.14.046931 +0200,
./images2/Sphere_Ref_BG-grey_stim-white.png,4,15,87,15,95.56572750001214,,,,,,,,,,95.53841790003935,95.56572750001214,95.56572750001214,96.30503360001603,96.32045769999968,96.48719730001176,None,0,,,sub-sub-test,ses-main,run-01,grey,2024-04-08_12h17.01.528,VDT,2023.2.3,60.070161965935455,2024-04-08 12h17.14.046931 +0200,
./images2/Sphere_CW-3.5_BG-grey_stim-white.png,4,16,88,16,96.51965410000412,,,,,,,,,,96.48839539999608,96.57008960004896,96.57008960004896,97.30367090000072,97.31927070004167,97.5191310000373,None,0,,,sub-sub-test,ses-main,run-01,grey,2024-04-08_12h17.01.528,VDT,2023.2.3,60.070161965935455,2024-04-08 12h17.14.046931 +0200,
./images2/Sphere_CW-3.5_BG-grey_stim-white.png,4,17,89,17,97.54671140003484,,,,,,,,,,97.51951539999573,97.54671140003484,97.54671140003484,98.31843690003734,98.29982710001059,98.53503160004038,None,0,,,sub-sub-test,ses-main,run-01,grey,2024-04-08_12h17.01.528,VDT,2023.2.3,60.070161965935455,2024-04-08 12h17.14.046931 +0200,
./images2/Sphere_CW-3.5_BG-grey_stim-white.png,5,0,90,0,98.5645134000224,,,,,,,,,,98.53545540000778,98.5645134000224,98.5645134000224,99.31744450004771,99.31744450004771,99.53414900001371,None,0,,,sub-sub-test,ses-main,run-01,grey,2024-04-08_12h17.01.528,VDT,2023.2.3,60.070161965935455,2024-04-08 12h17.14.046931 +0200,
./images2/Sphere_CCW-3.5_BG-grey_stim-white.png,5,1,91,1,99.56500330002746,,,,,,,,,,99.53469920001226,99.56500330002746,99.56500330002746,100.31639570003608,100.31639570003608,100.55027490004431,None,0,100.57816030003596,100.57816030003596,sub-sub-test,ses-main,run-01,grey,2024-04-08_12h17.01.528,VDT,2023.2.3,60.070161965935455,2024-04-08 12h17.14.046931 +0200,
./images2/Sphere_Ref_BG-grey_stim-white.png,5,2,92,2,100.57816030003596,,,,,,,,,,100.55070370004978,100.57816030003596,100.57816030003596,101.31668150000041,101.33216020005057,101.54875910002738,None,0,,,sub-sub-test,ses-main,run-01,grey,2024-04-08_12h17.01.528,VDT,2023.2.3,60.070161965935455,2024-04-08 12h17.14.046931 +0200,
./images2/Sphere_CCW-3.5_BG-grey_stim-white.png,5,3,93,3,101.57765390002169,,,,,,,,,,101.54919590003556,101.57765390002169,101.57765390002169,102.31597620004322,102.33134690002771,102.5479094000184,None,0,,,sub-sub-test,ses-main,run-01,grey,2024-04-08_12h17.01.528,VDT,2023.2.3,60.070161965935455,2024-04-08 12h17.14.046931 +0200,
./images2/Sphere_CCW-3.5_BG-grey_stim-white.png,5,4,94,4,102.5802207000088,,,,,,,,,,102.54846010002075,102.5802207000088,102.5802207000088,103.3152257000329,103.3304238000419,103.51417650002986,None,0,,,sub-sub-test,ses-main,run-01,grey,2024-04-08_12h17.01.528,VDT,2023.2.3,60.070161965935455,2024-04-08 12h17.14.046931 +0200,
./images2/Sphere_Ref_BG-grey_stim-white.png,5,5,95,5,103.54910450003808,,,,,,,,,,103.5154915000312,103.55323290004162,103.55323290004162,104.31261700001778,104.31261700001778,104.5126414000406,None,0,,,sub-sub-test,ses-main,run-01,grey,2024-04-08_12h17.01.528,VDT,2023.2.3,60.070161965935455,2024-04-08 12h17.14.046931 +0200,
./images2/Sphere_CCW-3.5_BG-grey_stim-white.png,5,6,96,6,104.54209550004452,,,,,,,,,,104.51321920001647,104.5462233000435,104.5462233000435,105.31188990001101,105.31188990001101,105.51162360003218,None,0,,,sub-sub-test,ses-main,run-01,grey,2024-04-08_12h17.01.528,VDT,2023.2.3,60.070161965935455,2024-04-08 12h17.14.046931 +0200,
./images2/Sphere_CW-3.5_BG-grey_stim-white.png,5,7,97,7,105.53704399999697,,,,,,,,,,105.51203040004475,105.54496900003869,105.54496900003869,106.31081110000378,106.2924469000427,106.51076710002962,None,0,,,sub-sub-test,ses-main,run-01,grey,2024-04-08_12h17.01.528,VDT,2023.2.3,60.070161965935455,2024-04-08 12h17.14.046931 +0200,
./images2/Sphere_CCW-3.5_BG-grey_stim-white.png,5,8,98,8,106.54533120000269,,,,,,,,,,106.51123580004787,106.54933950002305,106.54933950002305,107.31028900004458,107.31028900004458,107.47704740002519,None,0,,,sub-sub-test,ses-main,run-01,grey,2024-04-08_12h17.01.528,VDT,2023.2.3,60.070161965935455,2024-04-08 12h17.14.046931 +0200,
./images2/Sphere_CW-3.5_BG-grey_stim-white.png,5,9,99,9,107.50497290003113,,,,,,,,,,107.47812220000196,107.56016819999786,107.56016819999786,108.31026580004254,108.32552280003438,108.52550520002842,None,0,,,sub-sub-test,ses-main,run-01,grey,2024-04-08_12h17.01.528,VDT,2023.2.3,60.070161965935455,2024-04-08 12h17.14.046931 +0200,
./images2/Sphere_Ref_BG-grey_stim-white.png,5,10,100,10,108.55512289999751,,,,,,,,,,108.52605129999574,108.55512289999751,108.55512289999751,109.30797560000792,109.30797560000792,109.54170480003813,None,0,109.5707112000091,109.5707112000091,sub-sub-test,ses-main,run-01,grey,2024-04-08_12h17.01.528,VDT,2023.2.3,60.070161965935455,2024-04-08 12h17.14.046931 +0200,
./images2/Sphere_CW-3.5_BG-grey_stim-white.png,5,11,101,11,109.5707112000091,,,,,,,,,,109.54225640004734,109.5707112000091,109.5707112000091,110.30832760001067,110.32381970004644,110.557578500011,None,0,110.5829399000504,110.5829399000504,sub-sub-test,ses-main,run-01,grey,2024-04-08_12h17.01.528,VDT,2023.2.3,60.070161965935455,2024-04-08 12h17.14.046931 +0200,
./images2/Sphere_CCW-3.5_BG-grey_stim-white.png,5,12,102,12,110.5829399000504,,,,,,,,,,110.55801520001842,110.5829399000504,110.5829399000504,111.30766600003699,111.33971220004605,111.52309110003989,None,0,,,sub-sub-test,ses-main,run-01,grey,2024-04-08_12h17.01.528,VDT,2023.2.3,60.070161965935455,2024-04-08 12h17.14.046931 +0200,
./images2/Sphere_CCW-3.5_BG-grey_stim-white.png,5,13,103,13,111.55774390004808,,,,,,,,,,111.52405900001759,111.55774390004808,111.55774390004808,112.30638750002254,112.32203670003219,112.52186920004897,None,0,,,sub-sub-test,ses-main,run-01,grey,2024-04-08_12h17.01.528,VDT,2023.2.3,60.070161965935455,2024-04-08 12h17.14.046931 +0200,
./images2/Sphere_CW-3.5_BG-grey_stim-white.png,5,14,104,14,112.55486110004131,,,,,,,,,,112.52243900002213,112.55486110004131,112.55486110004131,113.30444360000547,113.30444360000547,113.50411550002173,None,0,,,sub-sub-test,ses-main,run-01,grey,2024-04-08_12h17.01.528,VDT,2023.2.3,60.070161965935455,2024-04-08 12h17.14.046931 +0200,
./images2/Sphere_Ref_BG-grey_stim-white.png,5,15,105,15,113.53049140004441,,,,,,,,,,113.50452330004191,113.55428020004183,113.55428020004183,114.30341600003885,114.30341600003885,114.55320340004982,None,0,114.55175939999754,114.59265800000867,sub-sub-test,ses-main,run-01,grey,2024-04-08_12h17.01.528,VDT,2023.2.3,60.070161965935455,2024-04-08 12h17.14.046931 +0200,
./images2/Sphere_CW-3.5_BG-grey_stim-white.png,5,16,106,16,114.59265800000867,,,,,,,,,,114.554933300009,114.59265800000867,114.59265800000867,115.30389620002825,115.35252120002406,115.50292240001727,None,0,,,sub-sub-test,ses-main,run-01,grey,2024-04-08_12h17.01.528,VDT,2023.2.3,60.070161965935455,2024-04-08 12h17.14.046931 +0200,
./images2/Sphere_CW-3.5_BG-grey_stim-white.png,5,17,107,17,115.54077860002872,,,,,,,,,,115.50415370002156,115.54077860002872,115.54077860002872,116.31817199999932,116.2996959000011,116.55174250004347,None,0,116.58364359999541,116.55126180005027,sub-sub-test,ses-main,run-01,grey,2024-04-08_12h17.01.528,VDT,2023.2.3,60.070161965935455,2024-04-08 12h17.14.046931 +0200,
./images2/Sphere_CW-3.5_BG-grey_stim-white.png,6,0,108,0,116.58364359999541,,,,,,,,,,116.552182000014,116.58364359999541,116.58364359999541,117.3185744000366,117.33399410004495,117.48390300001483,None,0,,,sub-sub-test,ses-main,run-01,grey,2024-04-08_12h17.01.528,VDT,2023.2.3,60.070161965935455,2024-04-08 12h17.14.046931 +0200,
./images2/Sphere_CCW-3.5_BG-grey_stim-white.png,6,1,109,1,117.51341350004077,,,,,,,,,,117.48486750002485,117.5674285000423,117.5674285000423,118.317555000016,118.33277940005064,118.49939840001753,None,0,,,sub-sub-test,ses-main,run-01,grey,2024-04-08_12h17.01.528,VDT,2023.2.3,60.070161965935455,2024-04-08 12h17.14.046931 +0200,
./images2/Sphere_Ref_BG-grey_stim-white.png,6,2,110,2,118.52194280002732,,,,,,,,,,118.49981550005032,118.56640060001519,118.56640060001519,119.31533820001641,119.31533820001641,119.5499761000392,None,0,119.58189480000874,119.58189480000874,sub-sub-test,ses-main,run-01,grey,2024-04-08_12h17.01.528,VDT,2023.2.3,60.070161965935455,2024-04-08 12h17.14.046931 +0200,
./images2/Sphere_CCW-3.5_BG-grey_stim-white.png,6,3,111,3,119.58189480000874,,,,,,,,,,119.55126720003318,119.58189480000874,119.58189480000874,120.3156342000002,120.33098270004848,120.56428800005233,None,0,,,sub-sub-test,ses-main,run-01,grey,2024-04-08_12h17.01.528,VDT,2023.2.3,60.070161965935455,2024-04-08 12h17.14.046931 +0200,
./images2/Sphere_CCW-3.5_BG-grey_stim-white.png,6,4,112,4,120.5938196000061,,,,,,,,,,120.56482740002684,120.5938196000061,120.5938196000061,121.31460600002902,121.34681270003784,121.49677330005215,None,0,,,sub-sub-test,ses-main,run-01,grey,2024-04-08_12h17.01.528,VDT,2023.2.3,60.070161965935455,2024-04-08 12h17.14.046931 +0200,
./images2/Sphere_Ref_BG-grey_stim-white.png,6,5,113,5,121.52484440000262,,,,,,,,,,121.49729950004257,121.56344610004453,121.56344610004453,122.31264380004723,122.31264380004723,122.54561860003741,None,0,,,sub-sub-test,ses-main,run-01,grey,2024-04-08_12h17.01.528,VDT,2023.2.3,60.070161965935455,2024-04-08 12h17.14.046931 +0200,
./images2/Sphere_CCW-3.5_BG-grey_stim-white.png,6,6,114,6,122.58716590004042,,,,,,,,,,122.54608920001192,122.58716590004042,122.58716590004042,123.31315840000752,123.34508080000523,123.51183220004896,None,0,,,sub-sub-test,ses-main,run-01,grey,2024-04-08_12h17.01.528,VDT,2023.2.3,60.070161965935455,2024-04-08 12h17.14.046931 +0200,
./images2/Sphere_CW-3.5_BG-grey_stim-white.png,6,7,115,7,123.54031250003027,,,,,,,,,,123.51234610000392,123.54502030002186,123.54502030002186,124.31044250004925,124.31044250004925,124.54386410000734,None,0,,,sub-sub-test,ses-main,run-01,grey,2024-04-08_12h17.01.528,VDT,2023.2.3,60.070161965935455,2024-04-08 12h17.14.046931 +0200,
./images2/Sphere_CCW-3.5_BG-grey_stim-white.png,6,8,116,8,124.57406400004402,,,,,,,,,,124.54431040002964,124.57406400004402,124.57406400004402,125.31101080001099,125.3262464000145,125.56072000000859,None,0,125.59871760004899,125.59871760004899,sub-sub-test,ses-main,run-01,grey,2024-04-08_12h17.01.528,VDT,2023.2.3,60.070161965935455,2024-04-08 12h17.14.046931 +0200,
./images2/Sphere_CW-3.5_BG-grey_stim-white.png,6,9,117,9,125.59871760004899,,,,,,,,,,125.56201590003911,125.59871760004899,125.59871760004899,126.31018710002536,126.35875660000602,126.57358190004015,None,0,126.57346320000943,,sub-sub-test,ses-main,run-01,grey,2024-04-08_12h17.01.528,VDT,2023.2.3,60.070161965935455,2024-04-08 12h17.14.046931 +0200,
./images2/Sphere_Ref_BG-grey_stim-white.png,6,10,118,10,126.6069753000047,,,,,,,,,,126.57411030004732,126.6069753000047,126.6069753000047,127.30931630003033,127.35787690000143,127.4920262999949,None,0,,,sub-sub-test,ses-main,run-01,grey,2024-04-08_12h17.01.528,VDT,2023.2.3,60.070161965935455,2024-04-08 12h17.14.046931 +0200,
./images2/Sphere_CW-3.5_BG-grey_stim-white.png,6,11,119,11,127.52539389999583,,,,,,,,,,127.49383210000815,127.55815759999678,127.55815759999678,128.3081477000378,128.32349520002026,128.4902036000276,None,0,,,sub-sub-test,ses-main,run-01,grey,2024-04-08_12h17.01.528,VDT,2023.2.3,60.070161965935455,2024-04-08 12h17.14.046931 +0200,
./images2/Sphere_CCW-3.5_BG-grey_stim-white.png,6,12,120,12,128.5188296000124,,,,,,,,,,128.4907741000061,128.5571071000304,128.5571071000304,129.30717110005207,129.32262030005222,129.50589420000324,None,0,,,sub-sub-test,ses-main,run-01,grey,2024-04-08_12h17.01.528,VDT,2023.2.3,60.070161965935455,2024-04-08 12h17.14.046931 +0200,
./images2/Sphere_CCW-3.5_BG-grey_stim-white.png,6,13,121,13,129.53454690001672,,,,,,,,,,129.5063119000406,129.55591590004042,129.55591590004042,130.30507990001934,130.30507990001934,130.5052260000375,None,0,,,sub-sub-test,ses-main,run-01,grey,2024-04-08_12h17.01.528,VDT,2023.2.3,60.070161965935455,2024-04-08 12h17.14.046931 +0200,
./images2/Sphere_CW-3.5_BG-grey_stim-white.png,6,14,122,14,130.5353288000333,,,,,,,,,,130.50577210000483,130.5392995000002,130.5392995000002,131.3041170000215,131.3041170000215,131.52139579999493,None,0,,,sub-sub-test,ses-main,run-01,grey,2024-04-08_12h17.01.528,VDT,2023.2.3,60.070161965935455,2024-04-08 12h17.14.046931 +0200,
./images2/Sphere_Ref_BG-grey_stim-white.png,6,15,123,15,131.55613400001312,,,,,,,,,,131.52300810004817,131.55613400001312,131.55613400001312,132.30446260003373,132.3197503000265,132.55354880000232,None,0,132.58284889999777,132.58284889999777,sub-sub-test,ses-main,run-01,grey,2024-04-08_12h17.01.528,VDT,2023.2.3,60.070161965935455,2024-04-08 12h17.14.046931 +0200,
./images2/Sphere_CW-3.5_BG-grey_stim-white.png,6,16,124,16,132.58284889999777,,,,,,,,,,132.55410890001804,132.58284889999777,132.58284889999777,133.3035848000436,133.3354493000079,133.5020693000406,None,0,,,sub-sub-test,ses-main,run-01,grey,2024-04-08_12h17.01.528,VDT,2023.2.3,60.070161965935455,2024-04-08 12h17.14.046931 +0200,
./images2/Sphere_CW-3.5_BG-grey_stim-white.png,6,17,125,17,133.52911870001117,,,,,,,,,,133.50257660000352,133.56915140000638,133.56915140000638,134.31907670001965,134.33468000002904,134.50130620005075,None,0,,,sub-sub-test,ses-main,run-01,grey,2024-04-08_12h17.01.528,VDT,2023.2.3,60.070161965935455,2024-04-08 12h17.14.046931 +0200,
./images2/Sphere_CW-3.5_BG-grey_stim-white.png,7,0,126,0,134.53177900001174,,,,,,,,,,134.50186430005124,134.56827980000526,134.56827980000526,135.31856050004717,135.33385150000686,135.50057430000743,None,0,,,sub-sub-test,ses-main,run-01,grey,2024-04-08_12h17.01.528,VDT,2023.2.3,60.070161965935455,2024-04-08 12h17.14.046931 +0200,
./images2/Sphere_CCW-3.5_BG-grey_stim-white.png,7,1,127,1,135.5307282000431,,,,,,,,,,135.50112580001587,135.5673703000066,135.5673703000066,136.3171241999953,136.332757199998,136.49924910004484,None,0,,,sub-sub-test,ses-main,run-01,grey,2024-04-08_12h17.01.528,VDT,2023.2.3,60.070161965935455,2024-04-08 12h17.14.046931 +0200,
./images2/Sphere_Ref_BG-grey_stim-white.png,7,2,128,2,136.5281241000048,,,,,,,,,,136.49976340000285,136.5659196000197,136.5659196000197,137.31505720003042,137.31505720003042,137.53156450000824,None,0,,,sub-sub-test,ses-main,run-01,grey,2024-04-08_12h17.01.528,VDT,2023.2.3,60.070161965935455,2024-04-08 12h17.14.046931 +0200,
./images2/Sphere_CCW-3.5_BG-grey_stim-white.png,7,3,129,3,137.56136570003582,,,,,,,,,,137.53203440003563,137.56136570003582,137.56136570003582,138.3142957999953,138.3142957999953,138.51411650003865,None,0,,,sub-sub-test,ses-main,run-01,grey,2024-04-08_12h17.01.528,VDT,2023.2.3,60.070161965935455,2024-04-08 12h17.14.046931 +0200,
./images2/Sphere_CCW-3.5_BG-grey_stim-white.png,7,4,130,4,138.54124049999518,,,,,,,,,,138.51452860003337,138.54742930002976,138.54742930002976,139.31346640002448,139.29490810004063,139.49682810000377,None,0,,,sub-sub-test,ses-main,run-01,grey,2024-04-08_12h17.01.528,VDT,2023.2.3,60.070161965935455,2024-04-08 12h17.14.046931 +0200,
./images2/Sphere_Ref_BG-grey_stim-white.png,7,5,131,5,139.5271885000402,,,,,,,,,,139.49737850000383,139.56374610000057,139.56374610000057,140.31351180002093,140.32901360001415,140.51227910001762,None,0,,,sub-sub-test,ses-main,run-01,grey,2024-04-08_12h17.01.528,VDT,2023.2.3,60.070161965935455,2024-04-08 12h17.14.046931 +0200,
./images2/Sphere_CCW-3.5_BG-grey_stim-white.png,7,6,132,6,140.54159690003144,,,,,,,,,,140.51281700003892,140.54564150003716,140.54564150003716,141.31141090003075,141.29298860003473,141.5450334000052,None,0,141.57993850001367,141.57993850001367,sub-sub-test,ses-main,run-01,grey,2024-04-08_12h17.01.528,VDT,2023.2.3,60.070161965935455,2024-04-08 12h17.14.046931 +0200,
./images2/Sphere_CW-3.5_BG-grey_stim-white.png,7,7,133,7,141.57993850001367,,,,,,,,,,141.54561770003056,141.57993850001367,141.57993850001367,142.31191849999595,142.34369210002478,142.51042040000902,None,0,,,sub-sub-test,ses-main,run-01,grey,2024-04-08_12h17.01.528,VDT,2023.2.3,60.070161965935455,2024-04-08 12h17.14.046931 +0200,
./images2/Sphere_CCW-3.5_BG-grey_stim-white.png,7,8,134,8,142.54120289999992,,,,,,,,,,142.51099229999818,142.54529770003865,142.54529770003865,143.30988499999512,143.30988499999512,143.4931096000364,None,0,,,sub-sub-test,ses-main,run-01,grey,2024-04-08_12h17.01.528,VDT,2023.2.3,60.070161965935455,2024-04-08 12h17.14.046931 +0200,
./images2/Sphere_CW-3.5_BG-grey_stim-white.png,7,9,135,9,143.52425890002633,,,,,,,,,,143.493993400014,143.56009820004692,143.56009820004692,144.30965320003452,144.32528700004332,144.50855940004112,None,0,,,sub-sub-test,ses-main,run-01,grey,2024-04-08_12h17.01.528,VDT,2023.2.3,60.070161965935455,2024-04-08 12h17.14.046931 +0200,
./images2/Sphere_Ref_BG-grey_stim-white.png,7,10,136,10,144.53536239999812,,,,,,,,,,144.50901670003077,144.54168690001825,144.54168690001825,145.30773680005223,145.2894198000431,145.5242300000391,None,0,,,sub-sub-test,ses-main,run-01,grey,2024-04-08_12h17.01.528,VDT,2023.2.3,60.070161965935455,2024-04-08 12h17.14.046931 +0200,
./images2/Sphere_CW-3.5_BG-grey_stim-white.png,7,11,137,11,145.5565648000338,,,,,,,,,,145.52477760001784,145.5565648000338,145.5565648000338,146.30673450004542,146.30673450004542,146.54069550003624,None,0,146.57834220002405,146.57834220002405,sub-sub-test,ses-main,run-01,grey,2024-04-08_12h17.01.528,VDT,2023.2.3,60.070161965935455,2024-04-08 12h17.14.046931 +0200,
./images2/Sphere_CCW-3.5_BG-grey_stim-white.png,7,12,138,12,146.57834220002405,,,,,,,,,,146.54141800000798,146.57834220002405,146.57834220002405,147.30742130003637,147.3395744000445,147.50595210003667,None,0,,,sub-sub-test,ses-main,run-01,grey,2024-04-08_12h17.01.528,VDT,2023.2.3,60.070161965935455,2024-04-08 12h17.14.046931 +0200,
./images2/Sphere_CCW-3.5_BG-grey_stim-white.png,7,13,139,13,147.5441020000144,,,,,,,,,,147.50666460004868,147.5441020000144,147.5441020000144,148.30475569999544,148.30475569999544,148.50475570000708,None,0,,,sub-sub-test,ses-main,run-01,grey,2024-04-08_12h17.01.528,VDT,2023.2.3,60.070161965935455,2024-04-08 12h17.14.046931 +0200,
./images2/Sphere_CW-3.5_BG-grey_stim-white.png,7,14,140,14,148.53584480000427,,,,,,,,,,148.50537030003034,148.54066810000222,148.54066810000222,149.30404930002987,149.30404930002987,149.4871524000191,None,0,,,sub-sub-test,ses-main,run-01,grey,2024-04-08_12h17.01.528,VDT,2023.2.3,60.070161965935455,2024-04-08 12h17.14.046931 +0200,
./images2/Sphere_Ref_BG-grey_stim-white.png,7,15,141,15,149.51057560002664,,,,,,,,,,149.4876668000361,149.57079690002138,149.57079690002138,150.30427520000376,150.31979510001838,150.5676409000298,None,0,150.56751030002488,,sub-sub-test,ses-main,run-01,grey,2024-04-08_12h17.01.528,VDT,2023.2.3,60.070161965935455,2024-04-08 12h17.14.046931 +0200,
./images2/Sphere_CW-3.5_BG-grey_stim-white.png,7,16,142,16,150.59577860002173,,,,,,,,,,150.56803920003586,150.59577860002173,150.59577860002173,151.3036376000382,151.35236880002776,151.53535750001902,None,0,,,sub-sub-test,ses-main,run-01,grey,2024-04-08_12h17.01.528,VDT,2023.2.3,60.070161965935455,2024-04-08 12h17.14.046931 +0200,
./images2/Sphere_CW-3.5_BG-grey_stim-white.png,7,17,143,17,151.5609060000279,,,,,,,,,,151.5357997000101,151.5609060000279,151.5609060000279,152.31789970002137,152.31789970002137,152.46778330003144,None,0,,,sub-sub-test,ses-main,run-01,grey,2024-04-08_12h17.01.528,VDT,2023.2.3,60.070161965935455,2024-04-08 12h17.14.046931 +0200,
./images2/Sphere_CW-3.5_BG-grey_stim-white.png,8,0,144,0,152.4903935000184,,,,,,,,,,152.4682066999958,152.56770030001644,152.56770030001644,153.31691550003598,153.31691550003598,153.5333941000281,None,0,,,sub-sub-test,ses-main,run-01,grey,2024-04-08_12h17.01.528,VDT,2023.2.3,60.070161965935455,2024-04-08 12h17.14.046931 +0200,
./images2/Sphere_CCW-3.5_BG-grey_stim-white.png,8,1,145,1,153.5582101000473,,,,,,,,,,153.53381170000648,153.5582101000473,153.5582101000473,154.31604850001168,154.31604850001168,154.54894080001395,None,0,,,sub-sub-test,ses-main,run-01,grey,2024-04-08_12h17.01.528,VDT,2023.2.3,60.070161965935455,2024-04-08 12h17.14.046931 +0200,
./images2/Sphere_Ref_BG-grey_stim-white.png,8,2,146,2,154.57450119999703,,,,,,,,,,154.5493642000365,154.57450119999703,154.57450119999703,155.31630930001847,155.3315821000142,155.48173670005053,None,0,,,sub-sub-test,ses-main,run-01,grey,2024-04-08_12h17.01.528,VDT,2023.2.3,60.070161965935455,2024-04-08 12h17.14.046931 +0200,
./images2/Sphere_CCW-3.5_BG-grey_stim-white.png,8,3,147,3,155.50791000004392,,,,,,,,,,155.48228470003232,155.5650671000476,155.5650671000476,156.31423280003946,156.31423280003946,156.54751220002072,None,0,,,sub-sub-test,ses-main,run-01,grey,2024-04-08_12h17.01.528,VDT,2023.2.3,60.070161965935455,2024-04-08 12h17.14.046931 +0200,
./images2/Sphere_CCW-3.5_BG-grey_stim-white.png,8,4,148,4,156.5758459000499,,,,,,,,,,156.5479518000502,156.5758459000499,156.5758459000499,157.31428620003862,157.3297255000216,157.51300690002972,None,0,,,sub-sub-test,ses-main,run-01,grey,2024-04-08_12h17.01.528,VDT,2023.2.3,60.070161965935455,2024-04-08 12h17.14.046931 +0200,
./images2/Sphere_Ref_BG-grey_stim-white.png,8,5,149,5,157.5373919000267,,,,,,,,,,157.51351360004628,157.54647050000494,157.54647050000494,158.31217879999895,158.29365870001493,158.54536079999525,None,0,,,sub-sub-test,ses-main,run-01,grey,2024-04-08_12h17.01.528,VDT,2023.2.3,60.070161965935455,2024-04-08 12h17.14.046931 +0200,
./images2/Sphere_CCW-3.5_BG-grey_stim-white.png,8,6,150,6,158.57590060000075,,,,,,,,,,158.545889800007,158.57590060000075,158.57590060000075,159.31267110002227,159.32804460002808,159.52785410004435,None,0,,,sub-sub-test,ses-main,run-01,grey,2024-04-08_12h17.01.528,VDT,2023.2.3,60.070161965935455,2024-04-08 12h17.14.046931 +0200,
./images2/Sphere_CW-3.5_BG-grey_stim-white.png,8,7,151,7,159.55545990000246,,,,,,,,,,159.52829440002097,159.55545990000246,159.55545990000246,160.31010140001308,160.31010140001308,160.4768965000403,None,0,,,sub-sub-test,ses-main,run-01,grey,2024-04-08_12h17.01.528,VDT,2023.2.3,60.070161965935455,2024-04-08 12h17.14.046931 +0200,
./images2/Sphere_CCW-3.5_BG-grey_stim-white.png,8,8,152,8,160.5015102000325,,,,,,,,,,160.47739590000128,160.5601021000184,160.5601021000184,161.30914630001644,161.30914630001644,161.55749580002157,None,0,161.55738529999508,,sub-sub-test,ses-main,run-01,grey,2024-04-08_12h17.01.528,VDT,2023.2.3,60.070161965935455,2024-04-08 12h17.14.046931 +0200,
./images2/Sphere_CW-3.5_BG-grey_stim-white.png,8,9,153,9,161.5851806999999,,,,,,,,,,161.55793150002137,161.5851806999999,161.5851806999999,162.30971800000407,162.34163280000212,162.5582846000325,None,0,,,sub-sub-test,ses-main,run-01,grey,2024-04-08_12h17.01.528,VDT,2023.2.3,60.070161965935455,2024-04-08 12h17.14.046931 +0200,
./images2/Sphere_Ref_BG-grey_stim-white.png,8,10,154,10,162.58790450001834,,,,,,,,,,162.55871010001283,162.58790450001834,162.58790450001834,163.3089485000237,163.34094970003935,163.5241723000072,None,0,,,sub-sub-test,ses-main,run-01,grey,2024-04-08_12h17.01.528,VDT,2023.2.3,60.070161965935455,2024-04-08 12h17.14.046931 +0200,
./images2/Sphere_CW-3.5_BG-grey_stim-white.png,8,11,155,11,163.55133710004156,,,,,,,,,,163.52464170003077,163.55133710004156,163.55133710004156,164.30660070001613,164.30660070001613,164.53978260001168,None,0,,,sub-sub-test,ses-main,run-01,grey,2024-04-08_12h17.01.528,VDT,2023.2.3,60.070161965935455,2024-04-08 12h17.14.046931 +0200,
./images2/Sphere_CCW-3.5_BG-grey_stim-white.png,8,12,156,12,164.58600559999468,,,,,,,,,,164.54073629999766,164.58600559999468,164.58600559999468,165.30768660001922,165.33907590003219,165.55547780002235,None,0,,,sub-sub-test,ses-main,run-01,grey,2024-04-08_12h17.01.528,VDT,2023.2.3,60.070161965935455,2024-04-08 12h17.14.046931 +0200,
./images2/Sphere_CCW-3.5_BG-grey_stim-white.png,8,13,157,13,165.5857039000257,,,,,,,,,,165.55598600005032,165.5857039000257,165.5857039000257,166.30599710001843,166.33806800004095,166.4882285000058,None,0,,,sub-sub-test,ses-main,run-01,grey,2024-04-08_12h17.01.528,VDT,2023.2.3,60.070161965935455,2024-04-08 12h17.14.046931 +0200,
./images2/Sphere_CW-3.5_BG-grey_stim-white.png,8,14,158,14,166.52758920000633,,,,,,,,,,166.48947309999494,166.5543633000343,166.5543633000343,167.30399270000635,167.30399270000635,167.5379114000243,None,0,167.5744239000487,167.5744239000487,sub-sub-test,ses-main,run-01,grey,2024-04-08_12h17.01.528,VDT,2023.2.3,60.070161965935455,2024-04-08 12h17.14.046931 +0200,
./images2/Sphere_Ref_BG-grey_stim-white.png,8,15,159,15,167.5744239000487,,,,,,,,,,167.5387624000432,167.5744239000487,167.5744239000487,168.30401110003004,168.33614870003657,168.5675413000281,None,0,168.56743930000812,,sub-sub-test,ses-main,run-01,grey,2024-04-08_12h17.01.528,VDT,2023.2.3,60.070161965935455,2024-04-08 12h17.14.046931 +0200,
./images2/Sphere_CW-3.5_BG-grey_stim-white.png,8,16,160,16,168.5929304000456,,,,,,,,,,168.56797770003323,168.5929304000456,168.5929304000456,169.3197956000222,169.35197240003617,169.48502230003942,None,0,,,sub-sub-test,ses-main,run-01,grey,2024-04-08_12h17.01.528,VDT,2023.2.3,60.070161965935455,2024-04-08 12h17.14.046931 +0200,
./images2/Sphere_CW-3.5_BG-grey_stim-white.png,8,17,161,17,169.51146690000314,,,,,,,,,,169.4855662000482,169.56847080000443,169.56847080000443,170.31744539999636,170.31744539999636,170.517355900025,None,0,,,sub-sub-test,ses-main,run-01,grey,2024-04-08_12h17.01.528,VDT,2023.2.3,60.070161965935455,2024-04-08 12h17.14.046931 +0200,
./images2/Sphere_CW-3.5_BG-grey_stim-white.png,9,0,162,0,170.54244320001453,,,,,,,,,,170.5178423000034,170.5509277000092,170.5509277000092,171.3169338000007,171.2984421000001,171.51649840001483,None,0,,,sub-sub-test,ses-main,run-01,grey,2024-04-08_12h17.01.528,VDT,2023.2.3,60.070161965935455,2024-04-08 12h17.14.046931 +0200,
./images2/Sphere_CCW-3.5_BG-grey_stim-white.png,9,1,163,1,171.53975970001193,,,,,,,,,,171.51692000002367,171.55021529999794,171.55021529999794,172.3157395000453,172.3157395000453,172.54902390000643,None,0,,,sub-sub-test,ses-main,run-01,grey,2024-04-08_12h17.01.528,VDT,2023.2.3,60.070161965935455,2024-04-08 12h17.14.046931 +0200,
./images2/Sphere_Ref_BG-grey_stim-white.png,9,2,164,2,172.57448100001784,,,,,,,,,,172.54960320005193,172.57448100001784,172.57448100001784,173.31591950001894,173.33142550004413,173.51473530003568,None,0,,,sub-sub-test,ses-main,run-01,grey,2024-04-08_12h17.01.528,VDT,2023.2.3,60.070161965935455,2024-04-08 12h17.14.046931 +0200,
./images2/Sphere_CCW-3.5_BG-grey_stim-white.png,9,3,165,3,173.54153040004894,,,,,,,,,,173.51528000005055,173.54818919999525,173.54818919999525,174.31401710002683,174.29544160002843,174.4803976000403,None,0,,,sub-sub-test,ses-main,run-01,grey,2024-04-08_12h17.01.528,VDT,2023.2.3,60.070161965935455,2024-04-08 12h17.14.046931 +0200,
./images2/Sphere_CCW-3.5_BG-grey_stim-white.png,9,4,166,4,174.50317810004344,,,,,,,,,,174.48083730001235,174.56388690002495,174.56388690002495,175.31321550003486,175.31321550003486,175.5610271000187,None,0,175.56092390004778,,sub-sub-test,ses-main,run-01,grey,2024-04-08_12h17.01.528,VDT,2023.2.3,60.070161965935455,2024-04-08 12h17.14.046931 +0200,
./images2/Sphere_Ref_BG-grey_stim-white.png,9,5,167,5,175.58636990003288,,,,,,,,,,175.5614576000371,175.58636990003288,175.58636990003288,176.31307240005117,176.3454633000074,176.46190520003438,None,0,,,sub-sub-test,ses-main,run-01,grey,2024-04-08_12h17.01.528,VDT,2023.2.3,60.070161965935455,2024-04-08 12h17.14.046931 +0200,
./images2/Sphere_CCW-3.5_BG-grey_stim-white.png,9,6,168,6,176.48733800003538,,,,,,,,,,176.4623877000413,176.56195160001516,176.56195160001516,177.31103929999517,177.31103929999517,177.52741640002932,None,0,,,sub-sub-test,ses-main,run-01,grey,2024-04-08_12h17.01.528,VDT,2023.2.3,60.070161965935455,2024-04-08 12h17.14.046931 +0200,
./images2/Sphere_CW-3.5_BG-grey_stim-white.png,9,7,169,7,177.5570054000127,,,,,,,,,,177.5279784000013,177.5570054000127,177.5570054000127,178.30997420003405,178.30997420003405,178.54329600004712,None,0,,,sub-sub-test,ses-main,run-01,grey,2024-04-08_12h17.01.528,VDT,2023.2.3,60.070161965935455,2024-04-08 12h17.14.046931 +0200,
./images2/Sphere_CCW-3.5_BG-grey_stim-white.png,9,8,170,8,178.56858670001384,,,,,,,,,,178.54370440001367,178.56858670001384,178.56858670001384,179.31052860000636,179.3258803000208,179.47604110004613,None,0,,,sub-sub-test,ses-main,run-01,grey,2024-04-08_12h17.01.528,VDT,2023.2.3,60.070161965935455,2024-04-08 12h17.14.046931 +0200,
./images2/Sphere_CW-3.5_BG-grey_stim-white.png,9,9,171,9,179.49934120004764,,,,,,,,,,179.47644150000997,179.55931260000216,179.55931260000216,180.30951890000142,180.32490430003963,180.47459860000527,None,0,,,sub-sub-test,ses-main,run-01,grey,2024-04-08_12h17.01.528,VDT,2023.2.3,60.070161965935455,2024-04-08 12h17.14.046931 +0200,
./images2/Sphere_Ref_BG-grey_stim-white.png,9,10,172,10,180.50939120003022,,,,,,,,,,180.4750003000372,180.5581159000285,180.5581159000285,181.30728840001393,181.30728840001393,181.49144270003308,None,0,,,sub-sub-test,ses-main,run-01,grey,2024-04-08_12h17.01.528,VDT,2023.2.3,60.070161965935455,2024-04-08 12h17.14.046931 +0200,
./images2/Sphere_CW-3.5_BG-grey_stim-white.png,9,11,173,11,181.5139549000305,,,,,,,,,,181.49183790001553,181.5572561000008,181.5572561000008,182.30620690004434,182.30620690004434,182.4897917000344,None,0,,,sub-sub-test,ses-main,run-01,grey,2024-04-08_12h17.01.528,VDT,2023.2.3,60.070161965935455,2024-04-08 12h17.14.046931 +0200,
./images2/Sphere_CCW-3.5_BG-grey_stim-white.png,9,12,174,12,182.51629660004983,,,,,,,,,,182.4902374999947,182.55664200003957,182.55664200003957,183.30681380000897,183.32209260005038,183.47209590004059,None,0,,,sub-sub-test,ses-main,run-01,grey,2024-04-08_12h17.01.528,VDT,2023.2.3,60.070161965935455,2024-04-08 12h17.14.046931 +0200,
./images2/Sphere_CCW-3.5_BG-grey_stim-white.png,9,13,175,13,183.49926530005177,,,,,,,,,,183.4726845000405,183.5555245000287,183.5555245000287,184.3058052000124,184.32113150000805,184.52331300004153,None,0,,,sub-sub-test,ses-main,run-01,grey,2024-04-08_12h17.01.528,VDT,2023.2.3,60.070161965935455,2024-04-08 12h17.14.046931 +0200,
./images2/Sphere_CW-3.5_BG-grey_stim-white.png,9,14,176,14,184.54880580003373,,,,,,,,,,184.52372240001569,184.54880580003373,184.54880580003373,185.30370420002146,185.30370420002146,185.53923860000214,None,0,185.5697790000122,185.5697790000122,sub-sub-test,ses-main,run-01,grey,2024-04-08_12h17.01.528,VDT,2023.2.3,60.070161965935455,2024-04-08 12h17.14.046931 +0200,
./images2/Sphere_Ref_BG-grey_stim-white.png,9,15,177,15,185.5697790000122,,,,,,,,,,185.53973320004297,185.5697790000122,185.5697790000122,186.30395309999585,186.3192085000337,186.5359666000004,None,0,,,sub-sub-test,ses-main,run-01,grey,2024-04-08_12h17.01.528,VDT,2023.2.3,60.070161965935455,2024-04-08 12h17.14.046931 +0200,
./images2/Sphere_CW-3.5_BG-grey_stim-white.png,9,16,178,16,186.56573730002856,,,,,,,,,,186.5363992000348,186.56573730002856,186.56573730002856,187.30308090004837,187.31842620001407,187.53509010002017,None,0,,,sub-sub-test,ses-main,run-01,grey,2024-04-08_12h17.01.528,VDT,2023.2.3,60.070161965935455,2024-04-08 12h17.14.046931 +0200,
./images2/Sphere_CW-3.5_BG-grey_stim-white.png,9,17,179,17,187.56564570002956,,,,,,,,,,187.53558760002488,187.56564570002956,187.56564570002956,188.3176652000402,188.3176652000402,188.50071180000668,None,0,,,sub-sub-test,ses-main,run-01,grey,2024-04-08_12h17.01.528,VDT,2023.2.3,60.070161965935455,2024-04-08 12h17.14.046931 +0200,
./images2/Sphere_CW-3.5_BG-grey_stim-white.png,10,0,180,0,188.5237146000145,,,,,,,,,,188.50110930000665,188.56758620002074,188.56758620002074,189.3177431000513,189.33316170005128,189.49963690002915,None,0,,,sub-sub-test,ses-main,run-01,grey,2024-04-08_12h17.01.528,VDT,2023.2.3,60.070161965935455,2024-04-08 12h17.14.046931 +0200,
./images2/Sphere_CCW-3.5_BG-grey_stim-white.png,10,1,181,1,189.52596880000783,,,,,,,,,,189.50013500003843,189.5665623000241,189.5665623000241,190.31680170004256,190.3321420000284,190.46559440001147,None,0,,,sub-sub-test,ses-main,run-01,grey,2024-04-08_12h17.01.528,VDT,2023.2.3,60.070161965935455,2024-04-08 12h17.14.046931 +0200,
./images2/Sphere_Ref_BG-grey_stim-white.png,10,2,182,2,190.49435190000804,,,,,,,,,,190.46607670001686,190.5655750000151,190.5655750000151,191.31489239999792,191.31489239999792,191.48126660002163,None,0,,,sub-sub-test,ses-main,run-01,grey,2024-04-08_12h17.01.528,VDT,2023.2.3,60.070161965935455,2024-04-08 12h17.14.046931 +0200,
./images2/Sphere_CCW-3.5_BG-grey_stim-white.png,10,3,183,3,191.5093910000287,,,,,,,,,,191.4816902000457,191.56457820005016,191.56457820005016,192.31350600003498,192.31350600003498,192.54676500003552,None,0,,,sub-sub-test,ses-main,run-01,grey,2024-04-08_12h17.01.528,VDT,2023.2.3,60.070161965935455,2024-04-08 12h17.14.046931 +0200,
./images2/Sphere_CCW-3.5_BG-grey_stim-white.png,10,4,184,4,192.57651070004795,,,,,,,,,,192.54731779999565,192.57651070004795,192.57651070004795,193.3137675000471,193.32938150002155,193.47940110001946,None,0,,,sub-sub-test,ses-main,run-01,grey,2024-04-08_12h17.01.528,VDT,2023.2.3,60.070161965935455,2024-04-08 12h17.14.046931 +0200,
./images2/Sphere_Ref_BG-grey_stim-white.png,10,5,185,5,193.5058185000089,,,,,,,,,,193.48035910003819,193.5625841000001,193.5625841000001,194.3117267000489,194.3117267000489,194.47826190001797,None,0,,,sub-sub-test,ses-main,run-01,grey,2024-04-08_12h17.01.528,VDT,2023.2.3,60.070161965935455,2024-04-08 12h17.14.046931 +0200,
./images2/Sphere_CCW-3.5_BG-grey_stim-white.png,10,6,186,6,194.50392710004235,,,,,,,,,,194.47869810002157,194.56168440001784,194.56168440001784,195.31101400003536,195.31101400003536,195.54424240003573,None,0,,,sub-sub-test,ses-main,run-01,grey,2024-04-08_12h17.01.528,VDT,2023.2.3,60.070161965935455,2024-04-08 12h17.14.046931 +0200,
./images2/Sphere_CW-3.5_BG-grey_stim-white.png,10,7,187,7,195.57388740003807,,,,,,,,,,195.5447775000357,195.57388740003807,195.57388740003807,196.31099780002842,196.32653960003518,196.50973049999448,None,0,,,sub-sub-test,ses-main,run-01,grey,2024-04-08_12h17.01.528,VDT,2023.2.3,60.070161965935455,2024-04-08 12h17.14.046931 +0200,
./images2/Sphere_CCW-3.5_BG-grey_stim-white.png,10,8,188,8,196.5400009000441,,,,,,,,,,196.51023620000342,196.54422450001584,196.54422450001584,197.30881270003738,197.30881270003738,197.50884580001002,None,0,,,sub-sub-test,ses-main,run-01,grey,2024-04-08_12h17.01.528,VDT,2023.2.3,60.070161965935455,2024-04-08 12h17.14.046931 +0200,
./images2/Sphere_CW-3.5_BG-grey_stim-white.png,10,9,189,9,197.53192780003883,,,,,,,,,,197.5092464000336,197.55894190003164,197.55894190003164,198.3080173000344,198.3080173000344,198.47489080001833,None,0,,,sub-sub-test,ses-main,run-01,grey,2024-04-08_12h17.01.528,VDT,2023.2.3,60.070161965935455,2024-04-08 12h17.14.046931 +0200,
./images2/Sphere_Ref_BG-grey_stim-white.png,10,10,190,10,198.49716520000948,,,,,,,,,,198.4753002000507,198.5580173000344,198.5580173000344,199.30723999999464,199.30723999999464,199.52385830000276,None,0,,,sub-sub-test,ses-main,run-01,grey,2024-04-08_12h17.01.528,VDT,2023.2.3,60.070161965935455,2024-04-08 12h17.14.046931 +0200,
./images2/Sphere_CW-3.5_BG-grey_stim-white.png,10,11,191,11,199.54985410004156,,,,,,,,,,199.52431450004224,199.54985410004156,199.54985410004156,200.30613660003291,200.30613660003291,200.48940240003867,None,0,,,sub-sub-test,ses-main,run-01,grey,2024-04-08_12h17.01.528,VDT,2023.2.3,60.070161965935455,2024-04-08 12h17.14.046931 +0200,
./images2/Sphere_CCW-3.5_BG-grey_stim-white.png,10,12,192,12,200.51236460002838,,,,,,,,,,200.4898701000493,200.5560714000021,200.5560714000021,201.30631270003505,201.32193249999546,201.55545070004882,None,0,201.58189600001788,201.58189600001788,sub-sub-test,ses-main,run-01,grey,2024-04-08_12h17.01.528,VDT,2023.2.3,60.070161965935455,2024-04-08 12h17.14.046931 +0200,
./images2/Sphere_CCW-3.5_BG-grey_stim-white.png,10,13,193,13,201.58189600001788,,,,,,,,,,201.5559074000339,201.58189600001788,201.58189600001788,202.30562270001974,202.337653900031,202.48786000005202,None,0,,,sub-sub-test,ses-main,run-01,grey,2024-04-08_12h17.01.528,VDT,2023.2.3,60.070161965935455,2024-04-08 12h17.14.046931 +0200,
./images2/Sphere_CW-3.5_BG-grey_stim-white.png,10,14,194,14,202.5201219000155,,,,,,,,,,202.48900820000563,202.55416940001305,202.55416940001305,203.3033931000391,203.3033931000391,203.52005400002236,None,0,,,sub-sub-test,ses-main,run-01,grey,2024-04-08_12h17.01.528,VDT,2023.2.3,60.070161965935455,2024-04-08 12h17.14.046931 +0200,
./images2/Sphere_Ref_BG-grey_stim-white.png,10,15,195,15,203.5470644000452,,,,,,,,,,203.52052160003223,203.5470644000452,203.5470644000452,204.30247370002326,204.30247370002326,204.53663570003118,None,0,204.56951580004534,204.56951580004534,sub-sub-test,ses-main,run-01,grey,2024-04-08_12h17.01.528,VDT,2023.2.3,60.070161965935455,2024-04-08 12h17.14.046931 +0200,
./images2/Sphere_CW-3.5_BG-grey_stim-white.png,10,16,196,16,204.56951580004534,,,,,,,,,,204.53772830002708,204.56951580004534,204.56951580004534,205.31921400001738,205.3347246000194,205.48462730000028,None,0,,,sub-sub-test,ses-main,run-01,grey,2024-04-08_12h17.01.528,VDT,2023.2.3,60.070161965935455,2024-04-08 12h17.14.046931 +0200,
./images2/Sphere_CW-3.5_BG-grey_stim-white.png,10,17,197,17,205.5076027000323,,,,,,,,,,205.48507600004086,205.56808860000456,205.56808860000456,206.31739390001167,206.31739390001167,206.53408660000423,None,0,,,sub-sub-test,ses-main,run-01,grey,2024-04-08_12h17.01.528,VDT,2023.2.3,60.070161965935455,2024-04-08 12h17.14.046931 +0200,
./images2/Sphere_CW-3.5_BG-grey_stim-white.png,11,0,198,0,206.56152530002873,,,,,,,,,,206.5351617000415,206.56152530002873,206.56152530002873,207.3161597000435,207.3161597000435,207.51652730000205,None,0,,,sub-sub-test,ses-main,run-01,grey,2024-04-08_12h17.01.528,VDT,2023.2.3,60.070161965935455,2024-04-08 12h17.14.046931 +0200,
./images2/Sphere_CCW-3.5_BG-grey_stim-white.png,11,1,199,1,207.5409742000047,,,,,,,,,,207.51692190003814,207.54971950000618,207.54971950000618,208.31531100004213,208.31531100004213,208.5485336999991,None,0,,,sub-sub-test,ses-main,run-01,grey,2024-04-08_12h17.01.528,VDT,2023.2.3,60.070161965935455,2024-04-08 12h17.14.046931 +0200,
./images2/Sphere_Ref_BG-grey_stim-white.png,11,2,200,2,208.57639890001155,,,,,,,,,,208.54907560005086,208.57639890001155,208.57639890001155,209.3156764000305,209.33090689999517,209.54754660004983,None,0,,,sub-sub-test,ses-main,run-01,grey,2024-04-08_12h17.01.528,VDT,2023.2.3,60.070161965935455,2024-04-08 12h17.14.046931 +0200,
./images2/Sphere_CCW-3.5_BG-grey_stim-white.png,11,3,201,3,209.57411899999715,,,,,,,,,,209.5479901000508,209.57411899999715,209.57411899999715,210.31458020000719,210.33017120003933,210.49700350000057,None,0,,,sub-sub-test,ses-main,run-01,grey,2024-04-08_12h17.01.528,VDT,2023.2.3,60.070161965935455,2024-04-08 12h17.14.046931 +0200,
./images2/Sphere_CCW-3.5_BG-grey_stim-white.png,11,4,202,4,210.5258967000409,,,,,,,,,,210.49796470004367,210.5633437000215,210.5633437000215,211.3129356999998,211.3129356999998,211.49623680004152,None,0,,,sub-sub-test,ses-main,run-01,grey,2024-04-08_12h17.01.528,VDT,2023.2.3,60.070161965935455,2024-04-08 12h17.14.046931 +0200,
./images2/Sphere_Ref_BG-grey_stim-white.png,11,5,203,5,211.53322209999897,,,,,,,,,,211.4973783000023,211.5627466000151,211.5627466000151,212.31275140005164,212.3280743000214,212.56186230003368,None,0,212.59103710000636,212.59103710000636,sub-sub-test,ses-main,run-01,grey,2024-04-08_12h17.01.528,VDT,2023.2.3,60.070161965935455,2024-04-08 12h17.14.046931 +0200,
./images2/Sphere_CCW-3.5_BG-grey_stim-white.png,11,6,204,6,212.59103710000636,,,,,,,,,,212.56239620002452,212.59103710000636,212.59103710000636,213.3116713000345,213.34375430003274,213.49383160000434,None,0,,,sub-sub-test,ses-main,run-01,grey,2024-04-08_12h17.01.528,VDT,2023.2.3,60.070161965935455,2024-04-08 12h17.14.046931 +0200,
./images2/Sphere_CW-3.5_BG-grey_stim-white.png,11,7,205,7,213.51965349999955,,,,,,,,,,213.4944938000408,213.56064480001805,213.56064480001805,214.30965940002352,214.30965940002352,214.49292690004222,None,0,,,sub-sub-test,ses-main,run-01,grey,2024-04-08_12h17.01.528,VDT,2023.2.3,60.070161965935455,2024-04-08 12h17.14.046931 +0200,
./images2/Sphere_CCW-3.5_BG-grey_stim-white.png,11,8,206,8,214.51759800000582,,,,,,,,,,214.493358000007,214.559742500016,214.559742500016,215.30899079999654,215.30899079999654,215.52548110001953,None,0,,,sub-sub-test,ses-main,run-01,grey,2024-04-08_12h17.01.528,VDT,2023.2.3,60.070161965935455,2024-04-08 12h17.14.046931 +0200,
./images2/Sphere_CW-3.5_BG-grey_stim-white.png,11,9,207,9,215.55144120001933,,,,,,,,,,215.5259332000278,215.55144120001933,215.55144120001933,216.3081516000093,216.3081516000093,216.52456460002577,None,0,,,sub-sub-test,ses-main,run-01,grey,2024-04-08_12h17.01.528,VDT,2023.2.3,60.070161965935455,2024-04-08 12h17.14.046931 +0200,
./images2/Sphere_Ref_BG-grey_stim-white.png,11,10,208,10,216.5533279000083,,,,,,,,,,216.52545780001674,216.5533279000083,216.5533279000083,217.30694969999604,217.30694969999604,217.5416943000164,None,0,217.5768143000314,217.5768143000314,sub-sub-test,ses-main,run-01,grey,2024-04-08_12h17.01.528,VDT,2023.2.3,60.070161965935455,2024-04-08 12h17.14.046931 +0200,
./images2/Sphere_CW-3.5_BG-grey_stim-white.png,11,11,209,11,217.5768143000314,,,,,,,,,,217.54290160001256,217.5768143000314,217.5768143000314,218.30712900002254,218.3390647000051,218.47249499999452,None,0,,,sub-sub-test,ses-main,run-01,grey,2024-04-08_12h17.01.528,VDT,2023.2.3,60.070161965935455,2024-04-08 12h17.14.046931 +0200,
./images2/Sphere_CCW-3.5_BG-grey_stim-white.png,11,12,210,12,218.49862339999527,,,,,,,,,,218.47294980002334,218.55621720000636,218.55621720000636,219.30628080002498,219.32164840004407,219.5383942000335,None,0,,,sub-sub-test,ses-main,run-01,grey,2024-04-08_12h17.01.528,VDT,2023.2.3,60.070161965935455,2024-04-08 12h17.14.046931 +0200,
./images2/Sphere_CCW-3.5_BG-grey_stim-white.png,11,13,211,13,219.5663266000338,,,,,,,,,,219.5388404999976,219.5663266000338,219.5663266000338,220.3051964000333,220.32075270003406,220.55441360000987,None,0,220.5801951000467,220.5801951000467,sub-sub-test,ses-main,run-01,grey,2024-04-08_12h17.01.528,VDT,2023.2.3,60.070161965935455,2024-04-08 12h17.14.046931 +0200,
./images2/Sphere_CW-3.5_BG-grey_stim-white.png,11,14,212,14,220.5801951000467,,,,,,,,,,220.55488780001178,220.5801951000467,220.5801951000467,221.30436380003812,221.33647510001902,221.53646150004352,None,0,,,sub-sub-test,ses-main,run-01,grey,2024-04-08_12h17.01.528,VDT,2023.2.3,60.070161965935455,2024-04-08 12h17.14.046931 +0200,
./images2/Sphere_Ref_BG-grey_stim-white.png,11,15,213,15,221.56381760002114,,,,,,,,,,221.53687480004737,221.56381760002114,221.56381760002114,222.30345500004478,222.31865210004617,222.53531600005226,None,0,,,sub-sub-test,ses-main,run-01,grey,2024-04-08_12h17.01.528,VDT,2023.2.3,60.070161965935455,2024-04-08 12h17.14.046931 +0200,
./images2/Sphere_CW-3.5_BG-grey_stim-white.png,11,16,214,16,222.56357410002965,,,,,,,,,,222.53578010003548,222.56357410002965,222.56357410002965,223.31791510002222,223.31791510002222,223.55158420000225,None,0,223.58003680000547,223.58003680000547,sub-sub-test,ses-main,run-01,grey,2024-04-08_12h17.01.528,VDT,2023.2.3,60.070161965935455,2024-04-08 12h17.14.046931 +0200,
./images2/Sphere_CW-3.5_BG-grey_stim-white.png,11,17,215,17,223.58003680000547,,,,,,,,,,223.55203190003522,223.58003680000547,223.58003680000547,224.31816970004002,224.33348160004243,224.51680650003254,None,0,,,sub-sub-test,ses-main,run-01,grey,2024-04-08_12h17.01.528,VDT,2023.2.3,60.070161965935455,2024-04-08 12h17.14.046931 +0200,
./images2/Sphere_CW-3.5_BG-grey_stim-white.png,12,0,216,0,224.54526790004456,,,,,,,,,,224.5173214999959,224.55008539999835,224.55008539999835,225.31591530004516,225.29761760000838,225.53265890001785,None,0,,,sub-sub-test,ses-main,run-01,grey,2024-04-08_12h17.01.528,VDT,2023.2.3,60.070161965935455,2024-04-08 12h17.14.046931 +0200,
./images2/Sphere_CCW-3.5_BG-grey_stim-white.png,12,1,217,1,225.56179840001278,,,,,,,,,,225.53314840001985,225.56179840001278,225.56179840001278,226.3151336000301,226.3151336000301,226.54873870004667,None,0,226.58182780002244,226.58182780002244,sub-sub-test,ses-main,run-01,grey,2024-04-08_12h17.01.528,VDT,2023.2.3,60.070161965935455,2024-04-08 12h17.14.046931 +0200,
./images2/Sphere_Ref_BG-grey_stim-white.png,12,2,218,2,226.58182780002244,,,,,,,,,,226.549268200004,226.58182780002244,226.58182780002244,227.31626170000527,227.3309384000022,227.5475824000314,None,0,,,sub-sub-test,ses-main,run-01,grey,2024-04-08_12h17.01.528,VDT,2023.2.3,60.070161965935455,2024-04-08 12h17.14.046931 +0200,
./images2/Sphere_CCW-3.5_BG-grey_stim-white.png,12,3,219,3,227.57542090001516,,,,,,,,,,227.5480525000021,227.57542090001516,227.57542090001516,228.31450910004787,228.32974700001068,228.51313020003727,None,0,,,sub-sub-test,ses-main,run-01,grey,2024-04-08_12h17.01.528,VDT,2023.2.3,60.070161965935455,2024-04-08 12h17.14.046931 +0200,
./images2/Sphere_CCW-3.5_BG-grey_stim-white.png,12,4,220,4,228.54195750004146,,,,,,,,,,228.5136424000375,228.54641540005105,228.54641540005105,229.31229130004067,229.29411820002133,229.52881540003,None,0,,,sub-sub-test,ses-main,run-01,grey,2024-04-08_12h17.01.528,VDT,2023.2.3,60.070161965935455,2024-04-08 12h17.14.046931 +0200,
./images2/Sphere_Ref_BG-grey_stim-white.png,12,5,221,5,229.5577656000387,,,,,,,,,,229.52920730004553,229.5577656000387,229.5577656000387,230.3113541000057,230.3113541000057,230.5282014000113,None,0,,,sub-sub-test,ses-main,run-01,grey,2024-04-08_12h17.01.528,VDT,2023.2.3,60.070161965935455,2024-04-08 12h17.14.046931 +0200,
./images2/Sphere_CCW-3.5_BG-grey_stim-white.png,12,6,222,6,230.5627807000419,,,,,,,,,,230.52917970001,230.5627807000419,230.5627807000419,231.31171410001116,231.3270461000502,231.56051370000932,None,0,,,sub-sub-test,ses-main,run-01,grey,2024-04-08_12h17.01.528,VDT,2023.2.3,60.070161965935455,2024-04-08 12h17.14.046931 +0200,
./images2/Sphere_CW-3.5_BG-grey_stim-white.png,12,7,223,7,231.5932204000419,,,,,,,,,,231.56102880003164,231.5932204000419,231.5932204000419,232.31060600001365,232.34262460004538,232.50946770003065,None,0,,,sub-sub-test,ses-main,run-01,grey,2024-04-08_12h17.01.528,VDT,2023.2.3,60.070161965935455,2024-04-08 12h17.14.046931 +0200,
./images2/Sphere_CCW-3.5_BG-grey_stim-white.png,12,8,224,8,232.53525700001046,,,,,,,,,,232.50989070005016,232.54269230004866,232.54269230004866,233.3083925000392,233.28999540000223,233.54219580005156,None,0,233.56828350003343,233.56828350003343,sub-sub-test,ses-main,run-01,grey,2024-04-08_12h17.01.528,VDT,2023.2.3,60.070161965935455,2024-04-08 12h17.14.046931 +0200,
./images2/Sphere_CW-3.5_BG-grey_stim-white.png,12,9,225,9,233.56828350003343,,,,,,,,,,233.54265610000584,233.56828350003343,233.56828350003343,234.30884330003755,234.32413790002465,234.5575423000264,None,0,,,sub-sub-test,ses-main,run-01,grey,2024-04-08_12h17.01.528,VDT,2023.2.3,60.070161965935455,2024-04-08 12h17.14.046931 +0200,
./images2/Sphere_Ref_BG-grey_stim-white.png,12,10,226,10,234.58451030001743,,,,,,,,,,234.55796820000978,234.58451030001743,234.58451030001743,235.30798149999464,235.33995470002992,235.57140180002898,None,0,235.57128850003937,,sub-sub-test,ses-main,run-01,grey,2024-04-08_12h17.01.528,VDT,2023.2.3,60.070161965935455,2024-04-08 12h17.14.046931 +0200,
./images2/Sphere_CW-3.5_BG-grey_stim-white.png,12,11,227,11,235.6003993000486,,,,,,,,,,235.5718237000401,235.6003993000486,235.6003993000486,236.30686670000432,236.3555878000334,236.5056334999972,None,0,,,sub-sub-test,ses-main,run-01,grey,2024-04-08_12h17.01.528,VDT,2023.2.3,60.070161965935455,2024-04-08 12h17.14.046931 +0200,
./images2/Sphere_CCW-3.5_BG-grey_stim-white.png,12,12,228,12,236.5338044000091,,,,,,,,,,236.50659689999884,236.55558909999672,236.55558909999672,237.30479760002345,237.30479760002345,237.55280510004377,None,0,237.55267430003732,,sub-sub-test,ses-main,run-01,grey,2024-04-08_12h17.01.528,VDT,2023.2.3,60.070161965935455,2024-04-08 12h17.14.046931 +0200,
./images2/Sphere_CCW-3.5_BG-grey_stim-white.png,12,13,229,13,237.58316900004866,,,,,,,,,,237.55329460004577,237.58316900004866,237.58316900004866,238.3051214000443,238.33718060003594,238.5372245000326,None,0,,,sub-sub-test,ses-main,run-01,grey,2024-04-08_12h17.01.528,VDT,2023.2.3,60.070161965935455,2024-04-08 12h17.14.046931 +0200,
./images2/Sphere_CW-3.5_BG-grey_stim-white.png,12,14,230,14,238.57345340005122,,,,,,,,,,238.53820350003662,238.57345340005122,238.57345340005122,239.3044932000339,239.33636370004388,239.50305200001458,None,0,,,sub-sub-test,ses-main,run-01,grey,2024-04-08_12h17.01.528,VDT,2023.2.3,60.070161965935455,2024-04-08 12h17.14.046931 +0200,
./images2/Sphere_Ref_BG-grey_stim-white.png,12,15,231,15,239.53180670004804,,,,,,,,,,239.50358990003588,239.569612900028,239.569612900028,240.30397970002377,240.31904910004232,240.46879990003072,None,0,,,sub-sub-test,ses-main,run-01,grey,2024-04-08_12h17.01.528,VDT,2023.2.3,60.070161965935455,2024-04-08 12h17.14.046931 +0200,
./images2/Sphere_CW-3.5_BG-grey_stim-white.png,12,16,232,16,240.50914969999576,,,,,,,,,,240.47004820004804,240.56857510004193,240.56857510004193,241.31882010004483,241.33440570003586,241.48420430003898,None,0,,,sub-sub-test,ses-main,run-01,grey,2024-04-08_12h17.01.528,VDT,2023.2.3,60.070161965935455,2024-04-08 12h17.14.046931 +0200,
./images2/Sphere_CW-3.5_BG-grey_stim-white.png,12,17,233,17,241.50823130004574,,,,,,,,,,241.48462630005088,241.56753010000102,241.56753010000102,242.31656530004693,242.31656530004693,242.50003090000246,None,0,,,sub-sub-test,ses-main,run-01,grey,2024-04-08_12h17.01.528,VDT,2023.2.3,60.070161965935455,2024-04-08 12h17.14.046931 +0200,
./images2/Sphere_CW-3.5_BG-grey_stim-white.png,13,0,234,0,242.52476030000253,,,,,,,,,,242.5005097000394,242.56694109999808,242.56694109999808,243.31718620000174,243.33247720001964,243.51572890003445,None,0,,,sub-sub-test,ses-main,run-01,grey,2024-04-08_12h17.01.528,VDT,2023.2.3,60.070161965935455,2024-04-08 12h17.14.046931 +0200,
./images2/Sphere_CCW-3.5_BG-grey_stim-white.png,13,1,235,1,243.54827430000296,,,,,,,,,,243.51623990002554,243.5523331000004,243.5523331000004,244.31486800004495,244.31486800004495,244.49829040002078,None,0,,,sub-sub-test,ses-main,run-01,grey,2024-04-08_12h17.01.528,VDT,2023.2.3,60.070161965935455,2024-04-08 12h17.14.046931 +0200,
./images2/Sphere_Ref_BG-grey_stim-white.png,13,2,236,2,244.5359110000427,,,,,,,,,,244.49950990005163,244.540022900037,244.540022900037,245.313908000011,245.29548650002107,245.5473702000454,None,0,245.57372660003603,245.54692500003148,sub-sub-test,ses-main,run-01,grey,2024-04-08_12h17.01.528,VDT,2023.2.3,60.070161965935455,2024-04-08 12h17.14.046931 +0200,
./images2/Sphere_CCW-3.5_BG-grey_stim-white.png,13,3,237,3,245.57372660003603,,,,,,,,,,245.54779670003336,245.57372660003603,245.57372660003603,246.3142384000239,246.32961750001414,246.5299040999962,None,0,,,sub-sub-test,ses-main,run-01,grey,2024-04-08_12h17.01.528,VDT,2023.2.3,60.070161965935455,2024-04-08 12h17.14.046931 +0200,
./images2/Sphere_CCW-3.5_BG-grey_stim-white.png,13,4,238,4,246.56425840000156,,,,,,,,,,246.53082990000257,246.56425840000156,246.56425840000156,247.31342610000866,247.32888530002674,247.54544850002276,None,0,,,sub-sub-test,ses-main,run-01,grey,2024-04-08_12h17.01.528,VDT,2023.2.3,60.070161965935455,2024-04-08 12h17.14.046931 +0200,
./images2/Sphere_Ref_BG-grey_stim-white.png,13,5,239,5,247.5736356000416,,,,,,,,,,247.5459066000185,247.5736356000416,247.5736356000416,248.31223460001638,248.32765330001712,248.56099960004212,None,0,,,sub-sub-test,ses-main,run-01,grey,2024-04-08_12h17.01.528,VDT,2023.2.3,60.070161965935455,2024-04-08 12h17.14.046931 +0200,
./images2/Sphere_CCW-3.5_BG-grey_stim-white.png,13,6,240,6,248.58733080001548,,,,,,,,,,248.561392100004,248.58733080001548,248.58733080001548,249.31140500004403,249.34357890003594,249.49346810003044,None,0,,,sub-sub-test,ses-main,run-01,grey,2024-04-08_12h17.01.528,VDT,2023.2.3,60.070161965935455,2024-04-08 12h17.14.046931 +0200,
./images2/Sphere_CW-3.5_BG-grey_stim-white.png,13,7,241,7,249.5206500000204,,,,,,,,,,249.49388260004343,249.56035640003392,249.56035640003392,250.3104667000007,250.32594440004323,250.50918330001878,None,0,,,sub-sub-test,ses-main,run-01,grey,2024-04-08_12h17.01.528,VDT,2023.2.3,60.070161965935455,2024-04-08 12h17.14.046931 +0200,
./images2/Sphere_CCW-3.5_BG-grey_stim-white.png,13,8,242,8,250.5400798000046,,,,,,,,,,250.5097522000433,250.54420310002752,250.54420310002752,251.30840810004156,251.30840810004156,251.5251177000464,None,0,,,sub-sub-test,ses-main,run-01,grey,2024-04-08_12h17.01.528,VDT,2023.2.3,60.070161965935455,2024-04-08 12h17.14.046931 +0200,
./images2/Sphere_CW-3.5_BG-grey_stim-white.png,13,9,243,9,251.55393580003874,,,,,,,,,,251.5259743000497,251.55393580003874,251.55393580003874,252.3075296000461,252.3075296000461,252.5073072000523,None,0,,,sub-sub-test,ses-main,run-01,grey,2024-04-08_12h17.01.528,VDT,2023.2.3,60.070161965935455,2024-04-08 12h17.14.046931 +0200,
./images2/Sphere_Ref_BG-grey_stim-white.png,13,10,244,10,252.53615820000414,,,,,,,,,,252.50785990001168,252.54054850002285,252.54054850002285,253.30632580001839,253.2879993999959,253.5402316999971,None,0,253.5692313000327,253.5692313000327,sub-sub-test,ses-main,run-01,grey,2024-04-08_12h17.01.528,VDT,2023.2.3,60.070161965935455,2024-04-08 12h17.14.046931 +0200,
./images2/Sphere_CW-3.5_BG-grey_stim-white.png,13,11,245,11,253.5692313000327,,,,,,,,,,253.5406865000259,253.5692313000327,253.5692313000327,254.30671550001716,254.32220190000953,254.48884020000696,None,0,,,sub-sub-test,ses-main,run-01,grey,2024-04-08_12h17.01.528,VDT,2023.2.3,60.070161965935455,2024-04-08 12h17.14.046931 +0200,
./images2/Sphere_CCW-3.5_BG-grey_stim-white.png,13,12,246,12,254.5141730000032,,,,,,,,,,254.48943320004037,254.55548380000982,254.55548380000982,255.30461020005168,255.30461020005168,255.52118700003484,None,0,,,sub-sub-test,ses-main,run-01,grey,2024-04-08_12h17.01.528,VDT,2023.2.3,60.070161965935455,2024-04-08 12h17.14.046931 +0200,
./images2/Sphere_CCW-3.5_BG-grey_stim-white.png,13,13,247,13,255.54898250004044,,,,,,,,,,255.52163530001417,255.54898250004044,255.54898250004044,256.3036725000129,256.3036725000129,256.5371247000294,None,0,256.56372190004913,256.56372190004913,sub-sub-test,ses-main,run-01,grey,2024-04-08_12h17.01.528,VDT,2023.2.3,60.070161965935455,2024-04-08 12h17.14.046931 +0200,
./images2/Sphere_CW-3.5_BG-grey_stim-white.png,13,14,248,14,256.56372190004913,,,,,,,,,,256.53752990002977,256.56372190004913,256.56372190004913,257.30400050000753,257.3192390000331,257.53582550003193,None,0,,,sub-sub-test,ses-main,run-01,grey,2024-04-08_12h17.01.528,VDT,2023.2.3,60.070161965935455,2024-04-08 12h17.14.046931 +0200,
./images2/Sphere_Ref_BG-grey_stim-white.png,13,15,249,15,257.56401910004206,,,,,,,,,,257.53633100003935,257.56401910004206,257.56401910004206,258.3184375000419,258.3184375000419,258.5015045000473,None,0,,,sub-sub-test,ses-main,run-01,grey,2024-04-08_12h17.01.528,VDT,2023.2.3,60.070161965935455,2024-04-08 12h17.14.046931 +0200,
./images2/Sphere_CW-3.5_BG-grey_stim-white.png,13,16,250,16,258.52568780002184,,,,,,,,,,258.50194909999846,258.56850880000275,258.56850880000275,259.3174660000368,259.3174660000368,259.51765430002706,None,0,,,sub-sub-test,ses-main,run-01,grey,2024-04-08_12h17.01.528,VDT,2023.2.3,60.070161965935455,2024-04-08 12h17.14.046931 +0200,
./images2/Sphere_CW-3.5_BG-grey_stim-white.png,13,17,251,17,259.5429684999981,,,,,,,,,,259.51810530002695,259.5512809000211,259.5512809000211,260.3164622000186,260.3164622000186,260.5503342000302,None,0,260.5770792000112,260.5770792000112,sub-sub-test,ses-main,run-01,grey,2024-04-08_12h17.01.528,VDT,2023.2.3,60.070161965935455,2024-04-08 12h17.14.046931 +0200,
./images2/Sphere_CW-3.5_BG-grey_stim-white.png,14,0,252,0,260.5770792000112,,,,,,,,,,260.5510892000166,260.5770792000112,260.5770792000112,261.31702580000274,261.33231440000236,261.51587250002194,None,0,,,sub-sub-test,ses-main,run-01,grey,2024-04-08_12h17.01.528,VDT,2023.2.3,60.070161965935455,2024-04-08 12h17.14.046931 +0200,
./images2/Sphere_CCW-3.5_BG-grey_stim-white.png,14,1,253,1,261.5446479000384,,,,,,,,,,261.51705690001836,261.54892240004847,261.54892240004847,262.3148368000402,262.29650280001806,262.5313695000368,None,0,,,sub-sub-test,ses-main,run-01,grey,2024-04-08_12h17.01.528,VDT,2023.2.3,60.070161965935455,2024-04-08 12h17.14.046931 +0200,
./images2/Sphere_Ref_BG-grey_stim-white.png,14,2,254,2,262.5605236000265,,,,,,,,,,262.5323338000453,262.5605236000265,262.5605236000265,263.3138588000438,263.3138588000438,263.4972577000153,None,0,,,sub-sub-test,ses-main,run-01,grey,2024-04-08_12h17.01.528,VDT,2023.2.3,60.070161965935455,2024-04-08 12h17.14.046931 +0200,
./images2/Sphere_CCW-3.5_BG-grey_stim-white.png,14,3,255,3,263.52190000005066,,,,,,,,,,263.49773290002486,263.56380720000016,263.56380720000016,264.31309310003417,264.31309310003417,264.5611543999985,None,0,264.56091540004127,,sub-sub-test,ses-main,run-01,grey,2024-04-08_12h17.01.528,VDT,2023.2.3,60.070161965935455,2024-04-08 12h17.14.046931 +0200,
./images2/Sphere_CCW-3.5_BG-grey_stim-white.png,14,4,256,4,264.59065600001486,,,,,,,,,,264.56229940004414,264.59065600001486,264.59065600001486,265.3130979000125,265.34512490005,265.57664470002055,None,0,265.57652160001453,,sub-sub-test,ses-main,run-01,grey,2024-04-08_12h17.01.528,VDT,2023.2.3,60.070161965935455,2024-04-08 12h17.14.046931 +0200,
./images2/Sphere_Ref_BG-grey_stim-white.png,14,5,257,5,265.6044921000139,,,,,,,,,,265.57717980002053,265.6044921000139,265.6044921000139,266.31227480003145,266.3609300000244,266.47782520001056,None,0,,,sub-sub-test,ses-main,run-01,grey,2024-04-08_12h17.01.528,VDT,2023.2.3,60.070161965935455,2024-04-08 12h17.14.046931 +0200,
./images2/Sphere_CCW-3.5_BG-grey_stim-white.png,14,6,258,6,266.50847010000143,,,,,,,,,,266.478918000008,266.56096540001454,266.56096540001454,267.3100638000178,267.3100638000178,267.54327160003595,None,0,,,sub-sub-test,ses-main,run-01,grey,2024-04-08_12h17.01.528,VDT,2023.2.3,60.070161965935455,2024-04-08 12h17.14.046931 +0200,
./images2/Sphere_CW-3.5_BG-grey_stim-white.png,14,7,259,7,267.57120010000654,,,,,,,,,,267.54379580001114,267.57120010000654,267.57120010000654,268.31034030002775,268.3255494000041,268.5256405000109,None,0,,,sub-sub-test,ses-main,run-01,grey,2024-04-08_12h17.01.528,VDT,2023.2.3,60.070161965935455,2024-04-08 12h17.14.046931 +0200,
./images2/Sphere_CCW-3.5_BG-grey_stim-white.png,14,8,260,8,268.55664130003424,,,,,,,,,,268.52619180001784,268.55664130003424,268.55664130003424,269.30815120000625,269.30815120000625,269.49145440000575,None,0,,,sub-sub-test,ses-main,run-01,grey,2024-04-08_12h17.01.528,VDT,2023.2.3,60.070161965935455,2024-04-08 12h17.14.046931 +0200,
./images2/Sphere_CW-3.5_BG-grey_stim-white.png,14,9,261,9,269.5218632000033,,,,,,,,,,269.49254180002026,269.5584126000176,269.5584126000176,270.3084851000458,270.3237900999957,270.49064180004643,None,0,,,sub-sub-test,ses-main,run-01,grey,2024-04-08_12h17.01.528,VDT,2023.2.3,60.070161965935455,2024-04-08 12h17.14.046931 +0200,
./images2/Sphere_Ref_BG-grey_stim-white.png,14,10,262,10,270.5175758000114,,,,,,,,,,270.4911785000004,270.5572898000246,270.5572898000246,271.30636960000265,271.30636960000265,271.47331670002313,None,0,,,sub-sub-test,ses-main,run-01,grey,2024-04-08_12h17.01.528,VDT,2023.2.3,60.070161965935455,2024-04-08 12h17.14.046931 +0200,
./images2/Sphere_CW-3.5_BG-grey_stim-white.png,14,11,263,11,271.4999003999983,,,,,,,,,,271.47431280004093,271.55632070003776,271.55632070003776,272.30534510000143,272.30534510000143,272.5053973000031,None,0,,,sub-sub-test,ses-main,run-01,grey,2024-04-08_12h17.01.528,VDT,2023.2.3,60.070161965935455,2024-04-08 12h17.14.046931 +0200,
./images2/Sphere_CCW-3.5_BG-grey_stim-white.png,14,12,264,12,272.5391387999989,,,,,,,,,,272.50629930000287,272.5433762000175,272.5433762000175,273.30439200002,273.30439200002,273.5379912000499,None,0,273.56615440000314,273.56615440000314,sub-sub-test,ses-main,run-01,grey,2024-04-08_12h17.01.528,VDT,2023.2.3,60.070161965935455,2024-04-08 12h17.14.046931 +0200,
./images2/Sphere_CCW-3.5_BG-grey_stim-white.png,14,13,265,13,273.56615440000314,,,,,,,,,,273.5384623000282,273.56615440000314,273.56615440000314,274.3046384000336,274.32005500001833,274.486864000035,None,0,,,sub-sub-test,ses-main,run-01,grey,2024-04-08_12h17.01.528,VDT,2023.2.3,60.070161965935455,2024-04-08 12h17.14.046931 +0200,
./images2/Sphere_CW-3.5_BG-grey_stim-white.png,14,14,266,14,274.51570740004536,,,,,,,,,,274.48739970003953,274.57016880001174,274.57016880001174,275.30391330004204,275.31929250003304,275.4857502000523,None,0,,,sub-sub-test,ses-main,run-01,grey,2024-04-08_12h17.01.528,VDT,2023.2.3,60.070161965935455,2024-04-08 12h17.14.046931 +0200,
./images2/Sphere_Ref_BG-grey_stim-white.png,14,15,267,15,275.512577800022,,,,,,,,,,275.48626930004684,275.56944560003467,275.56944560003467,276.3195452000364,276.33497780002654,276.50170020002406,None,0,,,sub-sub-test,ses-main,run-01,grey,2024-04-08_12h17.01.528,VDT,2023.2.3,60.070161965935455,2024-04-08 12h17.14.046931 +0200,
./images2/Sphere_CW-3.5_BG-grey_stim-white.png,14,16,268,16,276.53176420001546,,,,,,,,,,276.5028427000507,276.56818620004924,276.56818620004924,277.3185363000375,277.33402070001466,277.53370210004505,None,0,,,sub-sub-test,ses-main,run-01,grey,2024-04-08_12h17.01.528,VDT,2023.2.3,60.070161965935455,2024-04-08 12h17.14.046931 +0200,
./images2/Sphere_CW-3.5_BG-grey_stim-white.png,14,17,269,17,277.5600149999955,,,,,,,,,,277.53415200003656,277.5600149999955,277.5600149999955,278.3165157000185,278.3165157000185,278.54965100000845,None,0,,,sub-sub-test,ses-main,run-01,grey,2024-04-08_12h17.01.528,VDT,2023.2.3,60.070161965935455,2024-04-08 12h17.14.046931 +0200,
