image,trials.thisRepN,trials.thisTrialN,trials.thisN,trials.thisIndex,thisRow.t,notes,WaitingForScannerTrigger.started,Vertical.started,key_resp.started,WaitingForScannerTrigger.stopped,key_resp.keys,key_resp.corr,key_resp.rt,key_resp.duration,VDT.started,PresentedLine1.started,key_resp_2.started,FixDot2.started,PresentedLine1.stopped,VDT.stopped,key_resp_2.keys,key_resp_2.corr,key_resp_2.rt,key_resp_2.duration,FixDot2.stopped,key_resp_2.stopped,participant,session,run,BG_color,date,expName,psychopyVersion,frameRate,expStart,
,,,,,,,0.014938800013624132,0.07763399998657405,0.07763399998657405,4.2914883000194095,s,0,4.2042134999646805,None,,,,,,,,,,,,,sub-sub-test,ses-main,run-test,grey,2024-03-20_09h55.39.278,VDT,2023.2.3,59.990917375788335,2024-03-20 09h55.52.153825 +0100,
./images2/Sphere_CCW-3.5_BG-grey_stim-white.png,0,0,0,0,4.364747799991164,,,,,,,,,,4.330357200000435,4.364747799991164,4.364747799991164,5.061186300008558,5.12299930001609,5.256985699990764,None,0,,,,,sub-sub-test,ses-main,run-test,grey,2024-03-20_09h55.39.278,VDT,2023.2.3,59.990917375788335,2024-03-20 09h55.52.153825 +0100,
./images2/Sphere_CCW-3.5_BG-grey_stim-white.png,0,1,1,1,5.28760019998299,,,,,,,,,,5.258795400033705,5.294134700030554,5.294134700030554,6.055644400010351,6.055644400010351,6.288891500036698,None,0,,,,,sub-sub-test,ses-main,run-test,grey,2024-03-20_09h55.39.278,VDT,2023.2.3,59.990917375788335,2024-03-20 09h55.52.153825 +0100,
./images2/Sphere_CCW-3.5_BG-grey_stim-white.png,0,2,2,2,6.318715100002009,,,,,,,,,,6.289285000006203,6.318715100002009,6.318715100002009,7.05800190003356,7.071407300012652,7.271373099996708,None,0,,,,,sub-sub-test,ses-main,run-test,grey,2024-03-20_09h55.39.278,VDT,2023.2.3,59.990917375788335,2024-03-20 09h55.52.153825 +0100,
./images2/Sphere_CCW-3.5_BG-grey_stim-white.png,0,3,3,3,7.301959800010081,,,,,,,,,,7.271812300023157,7.301959800010081,7.301959800010081,8.053821100038476,8.053821100038476,8.23710160003975,None,0,,,,,sub-sub-test,ses-main,run-test,grey,2024-03-20_09h55.39.278,VDT,2023.2.3,59.990917375788335,2024-03-20 09h55.52.153825 +0100,
./images2/Sphere_Ref_BG-grey_stim-white.png,0,4,4,4,8.270321700023487,,,,,,,,,,8.23752860003151,8.30378210003255,8.30378210003255,9.052909300022293,9.052909300022293,9.219516100012697,['space'],0,0.26457520003896207,None,,,sub-sub-test,ses-main,run-test,grey,2024-03-20_09h55.39.278,VDT,2023.2.3,59.990917375788335,2024-03-20 09h55.52.153825 +0100,
./images2/Sphere_CW-3.5_BG-grey_stim-white.png,0,5,5,5,9.251185700006317,,,,,,,,,,9.220289400022011,9.303019599989057,9.303019599989057,10.05482140003005,10.068395400012378,10.285259600030258,None,0,,,,,sub-sub-test,ses-main,run-test,grey,2024-03-20_09h55.39.278,VDT,2023.2.3,59.990917375788335,2024-03-20 09h55.52.153825 +0100,
./images2/Sphere_CW-3.5_BG-grey_stim-white.png,0,6,6,6,10.312382300035097,,,,,,,,,,10.28561180003453,10.312382300035097,10.312382300035097,11.05415440001525,11.067725600034464,11.267586200032383,None,0,,,,,sub-sub-test,ses-main,run-test,grey,2024-03-20_09h55.39.278,VDT,2023.2.3,59.990917375788335,2024-03-20 09h55.52.153825 +0100,
./images2/Sphere_CW-3.5_BG-grey_stim-white.png,0,7,7,7,11.299603099992964,,,,,,,,,,11.268014500034042,11.299603099992964,11.299603099992964,12.049946799990721,12.049946799990721,12.285220900026616,None,0,,,12.315028599987272,12.315028599987272,sub-sub-test,ses-main,run-test,grey,2024-03-20_09h55.39.278,VDT,2023.2.3,59.990917375788335,2024-03-20 09h55.52.153825 +0100,
./images2/Sphere_Ref_BG-grey_stim-white.png,0,8,8,8,12.315028599987272,,,,,,,,,,12.285697299987078,12.315028599987272,12.315028599987272,13.051452799991239,13.065305199997965,13.215879500028677,['space'],0,0.2784578999853693,None,,,sub-sub-test,ses-main,run-test,grey,2024-03-20_09h55.39.278,VDT,2023.2.3,59.990917375788335,2024-03-20 09h55.52.153825 +0100,
./images2/Sphere_CW-3.5_BG-grey_stim-white.png,0,9,9,9,13.244735900021624,,,,,,,,,,13.216316300036851,13.29941289999988,13.29941289999988,14.050574900000356,14.064448299992364,14.247820299991872,None,0,,,,,sub-sub-test,ses-main,run-test,grey,2024-03-20_09h55.39.278,VDT,2023.2.3,59.990917375788335,2024-03-20 09h55.52.153825 +0100,
./images2/Sphere_CCW-3.5_BG-grey_stim-white.png,0,10,10,10,14.277092700009234,,,,,,,,,,14.24818580003921,14.283445000008214,14.283445000008214,15.046792800014373,15.046792800014373,15.246828700008336,['space'],0,0.31551739998394623,None,,,sub-sub-test,ses-main,run-test,grey,2024-03-20_09h55.39.278,VDT,2023.2.3,59.990917375788335,2024-03-20 09h55.52.153825 +0100,
./images2/Sphere_CW-3.5_BG-grey_stim-white.png,0,11,11,11,15.280130300030578,,,,,,,,,,15.24724320002133,15.286558700026944,15.286558700026944,16.046400099992752,16.046400099992752,16.263302200008184,None,0,,,,,sub-sub-test,ses-main,run-test,grey,2024-03-20_09h55.39.278,VDT,2023.2.3,59.990917375788335,2024-03-20 09h55.52.153825 +0100,
./images2/Sphere_Ref_BG-grey_stim-white.png,0,12,12,12,16.29341470001964,,,,,,,,,,16.26448509999318,16.29341470001964,16.29341470001964,17.045561700011604,17.045561700011604,17.245260299998336,['space'],0,0.5410604000207968,None,,,sub-sub-test,ses-main,run-test,grey,2024-03-20_09h55.39.278,VDT,2023.2.3,59.990917375788335,2024-03-20 09h55.52.153825 +0100,
./images2/Sphere_CW-3.5_BG-grey_stim-white.png,0,13,13,13,17.269192799984012,,,,,,,,,,17.245814400026575,17.295845600019675,17.295845600019675,18.047472600010224,18.061276799999177,18.294325500028208,None,0,,,,,sub-sub-test,ses-main,run-test,grey,2024-03-20_09h55.39.278,VDT,2023.2.3,59.990917375788335,2024-03-20 09h55.52.153825 +0100,
./images2/Sphere_CCW-3.5_BG-grey_stim-white.png,0,14,14,14,18.324247599986847,,,,,,,,,,18.29479870002251,18.324247599986847,18.324247599986847,19.0468331000302,19.076888800016604,19.306814800016582,None,0,,,19.30668290000176,,sub-sub-test,ses-main,run-test,grey,2024-03-20_09h55.39.278,VDT,2023.2.3,59.990917375788335,2024-03-20 09h55.52.153825 +0100,
./images2/Sphere_Ref_BG-grey_stim-white.png,0,15,15,15,19.33504710003035,,,,,,,,,,19.307283400034066,19.33504710003035,19.33504710003035,20.045657200040296,20.092565300001297,20.292557100008707,None,0,,,,,sub-sub-test,ses-main,run-test,grey,2024-03-20_09h55.39.278,VDT,2023.2.3,59.990917375788335,2024-03-20 09h55.52.153825 +0100,
./images2/Sphere_CW-3.5_BG-grey_stim-white.png,0,16,16,16,20.324091500020586,,,,,,,,,,20.293031300010625,20.324091500020586,20.324091500020586,21.044813200016506,21.074881999986246,21.291527800029144,['space'],0,0.3273586999857798,None,,,sub-sub-test,ses-main,run-test,grey,2024-03-20_09h55.39.278,VDT,2023.2.3,59.990917375788335,2024-03-20 09h55.52.153825 +0100,
./images2/Sphere_CCW-3.5_BG-grey_stim-white.png,0,17,17,17,21.319597900030203,,,,,,,,,,21.291984000010416,21.319597900030203,21.319597900030203,22.0437364000245,22.07409110001754,22.273966300010215,['space'],0,0.3229365000152029,None,,,sub-sub-test,ses-main,run-test,grey,2024-03-20_09h55.39.278,VDT,2023.2.3,59.990917375788335,2024-03-20 09h55.52.153825 +0100,
