image,trials.thisRepN,trials.thisTrialN,trials.thisN,trials.thisIndex,thisRow.t,notes,WaitingForScannerTrigger.started,Vertical.started,key_resp.started,WaitingForScannerTrigger.stopped,key_resp.keys,key_resp.corr,key_resp.rt,key_resp.duration,VDT.started,PresentedLine1.started,key_resp_2.started,FixDot2.started,PresentedLine1.stopped,VDT.stopped,key_resp_2.keys,key_resp_2.corr,participant,session,run,BG_color,date,expName,psychopyVersion,frameRate,expStart,
,,,,,,,0.005755231017246842,0.013482668000506237,0.013482668000506237,3.3177749190072063,s,0,3.294776972004911,None,,,,,,,,,sub-DDS_testrun,ses-3main,run-1,grey,2024-10-15_11h13.03.584,VDT,2023.2.3,114.84764082311146,2024-10-15 11h13.08.008215 +0200,
./images_eeg/Sphere_CCW-0.75_BG-grey_stim-white.png,0,0,0,0,3.373521077010082,,,,,,,,,,3.3284986060170922,3.373521077010082,3.373521077010082,4.065810222004075,4.11625793701387,4.240359299001284,None,0,sub-DDS_testrun,ses-3main,run-1,grey,2024-10-15_11h13.03.584,VDT,2023.2.3,114.84764082311146,2024-10-15 11h13.08.008215 +0200,
./images_eeg/Sphere_CW-0.75_BG-grey_stim-white.png,0,1,1,1,4.288131016015541,,,,,,,,,,4.241727303015068,4.313322825008072,4.313322825008072,5.064206623006612,5.056247351021739,5.2311160170065705,None,0,sub-DDS_testrun,ses-3main,run-1,grey,2024-10-15_11h13.03.584,VDT,2023.2.3,114.84764082311146,2024-10-15 11h13.08.008215 +0200,
./images_eeg/Sphere_CW-0.75_BG-grey_stim-white.png,0,2,2,2,5.2816449259989895,,,,,,,,,,5.2317492790170945,5.313371762022143,5.313371762022143,6.0640658660267945,6.055972271016799,6.223435432009865,None,0,sub-DDS_testrun,ses-3main,run-1,grey,2024-10-15_11h13.03.584,VDT,2023.2.3,114.84764082311146,2024-10-15 11h13.08.008215 +0200,
./images_eeg/Sphere_Ref_BG-grey_stim-white.png,0,3,3,3,6.26548998200451,,,,,,,,,,6.2243192000023555,6.314003340026829,6.314003340026829,7.07604654901661,7.07604654901661,7.2391111200267915,None,0,sub-DDS_testrun,ses-3main,run-1,grey,2024-10-15_11h13.03.584,VDT,2023.2.3,114.84764082311146,2024-10-15 11h13.08.008215 +0200,
./images_eeg/Sphere_CCW-0.75_BG-grey_stim-white.png,0,4,4,4,7.286785463016713,,,,,,,,,,7.240019381017191,7.3128577710012905,7.3128577710012905,8.063001743023051,8.055457297014073,8.280897182004992,None,0,sub-DDS_testrun,ses-3main,run-1,grey,2024-10-15_11h13.03.584,VDT,2023.2.3,114.84764082311146,2024-10-15 11h13.08.008215 +0200,
./images_eeg/Sphere_CW-0.75_BG-grey_stim-white.png,0,5,5,5,8.332650847005425,,,,,,,,,,8.281634534010664,8.332650847005425,8.332650847005425,9.064594270021189,9.082137909019366,9.263514356018277,None,0,sub-DDS_testrun,ses-3main,run-1,grey,2024-10-15_11h13.03.584,VDT,2023.2.3,114.84764082311146,2024-10-15 11h13.08.008215 +0200,
./images_eeg/Sphere_Ref_BG-grey_stim-white.png,0,6,6,6,9.314388933009468,,,,,,,,,,9.264285211014794,9.321132787998067,9.321132787998067,10.062057754024863,10.062057754024863,10.24772446800489,None,0,sub-DDS_testrun,ses-3main,run-1,grey,2024-10-15_11h13.03.584,VDT,2023.2.3,114.84764082311146,2024-10-15 11h13.08.008215 +0200,
./images_eeg/Sphere_CW-0.75_BG-grey_stim-white.png,0,7,7,7,10.30334878701251,,,,,,,,,,10.248469367012149,10.310479323001346,10.310479323001346,11.062778284016531,11.054579030023888,11.246547521004686,None,0,sub-DDS_testrun,ses-3main,run-1,grey,2024-10-15_11h13.03.584,VDT,2023.2.3,114.84764082311146,2024-10-15 11h13.08.008215 +0200,
./images_eeg/Sphere_CW-0.75_BG-grey_stim-white.png,0,8,8,8,11.294910980010172,,,,,,,,,,11.247140946012223,11.311613293015398,11.311613293015398,12.062530836003134,12.054294651024975,12.27202957100235,None,0,sub-DDS_testrun,ses-3main,run-1,grey,2024-10-15_11h13.03.584,VDT,2023.2.3,114.84764082311146,2024-10-15 11h13.08.008215 +0200,
./images_eeg/Sphere_CCW-0.75_BG-grey_stim-white.png,0,9,9,9,12.322790636011632,,,,,,,,,,12.273279244021978,12.322790636011632,12.322790636011632,13.062538404017687,13.070942358026514,13.254166773025645,None,0,sub-DDS_testrun,ses-3main,run-1,grey,2024-10-15_11h13.03.584,VDT,2023.2.3,114.84764082311146,2024-10-15 11h13.08.008215 +0200,
./images_eeg/Sphere_CCW-0.75_BG-grey_stim-white.png,0,10,10,10,13.290716966002947,,,,,,,,,,13.2546596150205,13.31185825902503,13.31185825902503,14.060689878009725,14.053518327011261,14.278839281003457,None,0,sub-DDS_testrun,ses-3main,run-1,grey,2024-10-15_11h13.03.584,VDT,2023.2.3,114.84764082311146,2024-10-15 11h13.08.008215 +0200,
./images_eeg/Sphere_Ref_BG-grey_stim-white.png,0,11,11,11,14.324939308018656,,,,,,,,,,14.27945059700869,14.324939308018656,14.324939308018656,15.062328461004654,15.070543588022701,15.261173774022609,None,0,sub-DDS_testrun,ses-3main,run-1,grey,2024-10-15_11h13.03.584,VDT,2023.2.3,114.84764082311146,2024-10-15 11h13.08.008215 +0200,
./images_eeg/Sphere_CCW-0.75_BG-grey_stim-white.png,0,12,12,12,15.304373706021579,,,,,,,,,,15.261622051009908,15.319857522001257,15.319857522001257,16.061215922003612,16.061215922003612,16.287192618998233,None,0,sub-DDS_testrun,ses-3main,run-1,grey,2024-10-15_11h13.03.584,VDT,2023.2.3,114.84764082311146,2024-10-15 11h13.08.008215 +0200,
./images_eeg/Sphere_CW-0.75_BG-grey_stim-white.png,0,13,13,13,16.33302428701427,,,,,,,,,,16.287936654000077,16.33302428701427,16.33302428701427,17.06093786400743,17.07821258500917,17.26034875001642,None,0,sub-DDS_testrun,ses-3main,run-1,grey,2024-10-15_11h13.03.584,VDT,2023.2.3,114.84764082311146,2024-10-15 11h13.08.008215 +0200,
./images_eeg/Sphere_Ref_BG-grey_stim-white.png,0,14,14,14,17.303472341998713,,,,,,,,,,17.260844203003217,17.319333197025117,17.319333197025117,18.0599687420181,18.0599687420181,18.236641904019052,None,0,sub-DDS_testrun,ses-3main,run-1,grey,2024-10-15_11h13.03.584,VDT,2023.2.3,114.84764082311146,2024-10-15 11h13.08.008215 +0200,
./images_eeg/Sphere_CCW-0.75_BG-grey_stim-white.png,0,15,15,15,18.284466233017156,,,,,,,,,,18.237624118017266,18.309771421016194,18.309771421016194,19.05937193700811,19.05244337001932,19.260532699001487,None,0,sub-DDS_testrun,ses-3main,run-1,grey,2024-10-15_11h13.03.584,VDT,2023.2.3,114.84764082311146,2024-10-15 11h13.08.008215 +0200,
./images_eeg/Sphere_CW-0.75_BG-grey_stim-white.png,0,16,16,16,19.30843549000565,,,,,,,,,,19.26115096799913,19.318806598021183,19.318806598021183,20.059168556006625,20.059168556006625,20.23633232701104,None,0,sub-DDS_testrun,ses-3main,run-1,grey,2024-10-15_11h13.03.584,VDT,2023.2.3,114.84764082311146,2024-10-15 11h13.08.008215 +0200,
./images_eeg/Sphere_CCW-0.75_BG-grey_stim-white.png,0,17,17,17,20.282574113021838,,,,,,,,,,20.237291336001363,20.30976836400805,20.30976836400805,21.058924630022375,21.05183951201616,21.286112018016865,None,0,sub-DDS_testrun,ses-3main,run-1,grey,2024-10-15_11h13.03.584,VDT,2023.2.3,114.84764082311146,2024-10-15 11h13.08.008215 +0200,
