image,trials.thisRepN,trials.thisTrialN,trials.thisN,trials.thisIndex,thisRow.t,notes,WaitingForScannerTrigger.started,Vertical.started,key_resp.started,WaitingForScannerTrigger.stopped,key_resp.keys,key_resp.corr,key_resp.rt,key_resp.duration,VDT.started,PresentedLine1.started,key_resp_2.started,FixDot2.started,PresentedLine1.stopped,VDT.stopped,key_resp_2.keys,key_resp_2.corr,FixDot2.stopped,key_resp_2.stopped,participant,session,run,BG_color,date,expName,psychopyVersion,frameRate,expStart,
,,,,,,,0.004746544000227004,0.011270999995758757,0.011270999995758757,0.4116689850052353,s,0,0.3916581390076317,None,,,,,,,,,,,sub-DDS_testrun,ses-3main,run-4,grey,2024-10-15_11h14.33.089,VDT,2023.2.3,118.86120361217243,2024-10-15 11h14.37.238505 +0200,
./images_eeg/Sphere_CCW-0.75_BG-grey_stim-white.png,0,0,0,0,0.4628682349866722,,,,,,,,,,0.42001534000155516,0.4628682349866722,0.4628682349866722,1.157658618001733,1.2076970729976892,1.3429212379851379,None,0,,,sub-DDS_testrun,ses-3main,run-4,grey,2024-10-15_11h14.33.089,VDT,2023.2.3,118.86120361217243,2024-10-15 11h14.37.238505 +0200,
./images_eeg/Sphere_CCW-0.75_BG-grey_stim-white.png,0,1,1,1,1.3858968029962853,,,,,,,,,,1.3437679570051841,1.4074337010097224,1.4074337010097224,2.1585744160111062,2.150506422010949,2.401529107009992,None,0,2.400629215000663,2.400629215000663,sub-DDS_testrun,ses-3main,run-4,grey,2024-10-15_11h14.33.089,VDT,2023.2.3,118.86120361217243,2024-10-15 11h14.37.238505 +0200,
./images_eeg/Sphere_CW-0.75_BG-grey_stim-white.png,0,2,2,2,2.452206929010572,,,,,,,,,,2.402464440994663,2.452206929010572,2.452206929010572,3.158583932003239,3.2000803769915365,3.3426036929886322,None,0,,,sub-DDS_testrun,ses-3main,run-4,grey,2024-10-15_11h14.33.089,VDT,2023.2.3,118.86120361217243,2024-10-15 11h14.37.238505 +0200,
./images_eeg/Sphere_Ref_BG-grey_stim-white.png,0,3,3,3,3.3909487089840695,,,,,,,,,,3.3436936330108438,3.407313075993443,3.407313075993443,4.157691202999558,4.1501212989969645,4.367536386998836,None,0,,,sub-DDS_testrun,ses-3main,run-4,grey,2024-10-15_11h14.33.089,VDT,2023.2.3,118.86120361217243,2024-10-15 11h14.37.238505 +0200,
./images_eeg/Sphere_CCW-0.75_BG-grey_stim-white.png,0,4,4,4,4.421698368998477,,,,,,,,,,4.368821318988921,4.421698368998477,4.421698368998477,5.158593450003536,5.166439416992944,5.391860489995452,None,0,,,sub-DDS_testrun,ses-3main,run-4,grey,2024-10-15_11h14.33.089,VDT,2023.2.3,118.86120361217243,2024-10-15 11h14.37.238505 +0200,
./images_eeg/Sphere_CW-0.75_BG-grey_stim-white.png,0,5,5,5,5.438750113011338,,,,,,,,,,5.3924671210115775,5.438750113011338,5.438750113011338,6.161384643986821,6.1844850039924495,6.357997766986955,None,0,,,sub-DDS_testrun,ses-3main,run-4,grey,2024-10-15_11h14.33.089,VDT,2023.2.3,118.86120361217243,2024-10-15 11h14.37.238505 +0200,
./images_eeg/Sphere_CCW-0.75_BG-grey_stim-white.png,0,6,6,6,6.404285664000781,,,,,,,,,,6.358723160985392,6.416139509005006,6.416139509005006,7.1568938010022976,7.1568938010022976,7.341242894006427,None,0,,,sub-DDS_testrun,ses-3main,run-4,grey,2024-10-15_11h14.33.089,VDT,2023.2.3,118.86120361217243,2024-10-15 11h14.37.238505 +0200,
./images_eeg/Sphere_Ref_BG-grey_stim-white.png,0,7,7,7,7.394901002990082,,,,,,,,,,7.341886826005066,7.40221583499806,7.40221583499806,8.156937505002134,8.149002563994145,8.375107462983578,None,0,,,sub-DDS_testrun,ses-3main,run-4,grey,2024-10-15_11h14.33.089,VDT,2023.2.3,118.86120361217243,2024-10-15 11h14.37.238505 +0200,
./images_eeg/Sphere_CW-0.75_BG-grey_stim-white.png,0,8,8,8,8.42410908700549,,,,,,,,,,8.375826300994959,8.42410908700549,8.42410908700549,9.157927422987996,9.16556296098861,9.356814013997791,None,0,,,sub-DDS_testrun,ses-3main,run-4,grey,2024-10-15_11h14.33.089,VDT,2023.2.3,118.86120361217243,2024-10-15 11h14.37.238505 +0200,
./images_eeg/Sphere_CCW-0.75_BG-grey_stim-white.png,0,9,9,9,9.404942455003038,,,,,,,,,,9.357428224000614,9.415093293995596,9.415093293995596,10.156363007001346,10.156363007001346,10.439714287000243,None,0,10.398649378010305,10.404864078009268,sub-DDS_testrun,ses-3main,run-4,grey,2024-10-15_11h14.33.089,VDT,2023.2.3,118.86120361217243,2024-10-15 11h14.37.238505 +0200,
./images_eeg/Sphere_CW-0.75_BG-grey_stim-white.png,0,10,10,10,10.488368118007202,,,,,,,,,,10.440465747000417,10.488368118007202,10.488368118007202,11.156759973004228,11.236569611995947,11.332770823995816,None,0,,,sub-DDS_testrun,ses-3main,run-4,grey,2024-10-15_11h14.33.089,VDT,2023.2.3,118.86120361217243,2024-10-15 11h14.37.238505 +0200,
./images_eeg/Sphere_CW-0.75_BG-grey_stim-white.png,0,11,11,11,11.379834478982957,,,,,,,,,,11.333451848011464,11.404822348995367,11.404822348995367,12.155809493997367,12.147531800001161,12.357049109996296,None,0,,,sub-DDS_testrun,ses-3main,run-4,grey,2024-10-15_11h14.33.089,VDT,2023.2.3,118.86120361217243,2024-10-15 11h14.37.238505 +0200,
./images_eeg/Sphere_Ref_BG-grey_stim-white.png,0,12,12,12,12.405308294983115,,,,,,,,,,12.35780716399313,12.414150502998382,12.414150502998382,13.155511246004608,13.155511246004608,13.356244113005232,None,0,,,sub-DDS_testrun,ses-3main,run-4,grey,2024-10-15_11h14.33.089,VDT,2023.2.3,118.86120361217243,2024-10-15 11h14.37.238505 +0200,
./images_eeg/Sphere_CCW-0.75_BG-grey_stim-white.png,0,13,13,13,13.404714433010668,,,,,,,,,,13.356969715008745,13.413840129011078,13.413840129011078,14.154963629000122,14.154963629000122,14.331415869004559,None,0,,,sub-DDS_testrun,ses-3main,run-4,grey,2024-10-15_11h14.33.089,VDT,2023.2.3,118.86120361217243,2024-10-15 11h14.37.238505 +0200,
./images_eeg/Sphere_CCW-0.75_BG-grey_stim-white.png,0,14,14,14,14.382098108995706,,,,,,,,,,14.332250681996811,14.403910385997733,14.403910385997733,15.156099882995477,15.156099882995477,15.381373677984811,None,0,,,sub-DDS_testrun,ses-3main,run-4,grey,2024-10-15_11h14.33.089,VDT,2023.2.3,118.86120361217243,2024-10-15 11h14.37.238505 +0200,
./images_eeg/Sphere_Ref_BG-grey_stim-white.png,0,15,15,15,15.433123556984356,,,,,,,,,,15.382318936986849,15.433123556984356,15.433123556984356,16.155496146006044,16.180042099003913,16.339405695005553,None,0,,,sub-DDS_testrun,ses-3main,run-4,grey,2024-10-15_11h14.33.089,VDT,2023.2.3,118.86120361217243,2024-10-15 11h14.37.238505 +0200,
./images_eeg/Sphere_CW-0.75_BG-grey_stim-white.png,0,16,16,16,16.390885983011685,,,,,,,,,,16.340136268991046,16.40439408799284,16.40439408799284,17.154060911998386,17.146528723009396,17.364101646002382,None,0,,,sub-DDS_testrun,ses-3main,run-4,grey,2024-10-15_11h14.33.089,VDT,2023.2.3,118.86120361217243,2024-10-15 11h14.37.238505 +0200,
./images_eeg/Sphere_CW-0.75_BG-grey_stim-white.png,0,17,17,17,17.40724153901101,,,,,,,,,,17.365094965003664,17.40724153901101,17.40724153901101,18.153903720987728,18.153903720987728,18.372502210986568,None,0,,,sub-DDS_testrun,ses-3main,run-4,grey,2024-10-15_11h14.33.089,VDT,2023.2.3,118.86120361217243,2024-10-15 11h14.37.238505 +0200,
