image,trials.thisRepN,trials.thisTrialN,trials.thisN,trials.thisIndex,thisRow.t,notes,WaitingForScannerTrigger.started,Vertical.started,key_resp.started,WaitingForScannerTrigger.stopped,key_resp.keys,key_resp.corr,key_resp.rt,key_resp.duration,VDT.started,PresentedLine1.started,key_resp_2.started,FixDot2.started,PresentedLine1.stopped,VDT.stopped,key_resp_2.keys,key_resp_2.corr,FixDot2.stopped,key_resp_2.stopped,participant,session,run,BG_color,date,expName,psychopyVersion,frameRate,expStart,
,,,,,,,0.006130152003606781,0.013581139006419107,0.013581139006419107,7.742164950992446,s,0,7.726671032985905,None,,,,,,,,,,,sub-testrun,ses-1control,run-1,grey,2024-10-15_10h58.52.865,VDT,2023.2.3,120.85476758170391,2024-10-15 10h59.01.352300 +0200,
./images_eeg/Sphere_CW-0.75_BG-grey_stim-white.png,0,0,0,0,7.799816533981357,,,,,,,,,,7.75987982499646,7.799816533981357,7.799816533981357,8.504406344000017,8.545583047001855,8.679884409008082,None,0,,,sub-testrun,ses-1control,run-1,grey,2024-10-15_10h58.52.865,VDT,2023.2.3,120.85476758170391,2024-10-15 10h59.01.352300 +0200,
./images_eeg/Sphere_CW-0.75_BG-grey_stim-white.png,0,1,1,1,8.72925104299793,,,,,,,,,,8.68104478798341,8.737905218004016,8.737905218004016,9.487004983006045,9.487004983006045,9.711395079997601,None,0,,,sub-testrun,ses-1control,run-1,grey,2024-10-15_10h58.52.865,VDT,2023.2.3,120.85476758170391,2024-10-15 10h59.01.352300 +0200,
./images_eeg/Sphere_Ref_BG-grey_stim-yellow.png,0,2,2,2,9.756131242989795,,,,,,,,,,9.711912073980784,9.756131242989795,9.756131242989795,10.503988067997852,10.503988067997852,10.705023283982882,None,0,,,sub-testrun,ses-1control,run-1,grey,2024-10-15_10h58.52.865,VDT,2023.2.3,120.85476758170391,2024-10-15 10h59.01.352300 +0200,
./images_eeg/Sphere_Ref_BG-grey_stim-white.png,0,3,3,3,10.754143951984588,,,,,,,,,,10.705836040986469,10.754143951984588,10.754143951984588,11.486620815005153,11.493176768999547,11.704196492006304,None,0,,,sub-testrun,ses-1control,run-1,grey,2024-10-15_10h58.52.865,VDT,2023.2.3,120.85476758170391,2024-10-15 10h59.01.352300 +0200,
./images_eeg/Sphere_CW-0.75_BG-grey_stim-white.png,0,4,4,4,11.749087711999891,,,,,,,,,,11.704807076981524,11.749087711999891,11.749087711999891,12.489474064990645,12.503309411986265,12.712037421006244,None,0,,,sub-testrun,ses-1control,run-1,grey,2024-10-15_10h58.52.865,VDT,2023.2.3,120.85476758170391,2024-10-15 10h59.01.352300 +0200,
./images_eeg/Sphere_CCW-0.75_BG-grey_stim-white.png,0,5,5,5,12.76476655298029,,,,,,,,,,12.712758145004045,12.76476655298029,12.76476655298029,13.488896519003902,13.536463569995249,13.77047134199529,None,0,13.73635188199114,13.769570651988033,sub-testrun,ses-1control,run-1,grey,2024-10-15_10h58.52.865,VDT,2023.2.3,120.85476758170391,2024-10-15 10h59.01.352300 +0200,
./images_eeg/Sphere_CCW-0.75_BG-grey_stim-yellow.png,0,6,6,6,13.816293084004428,,,,,,,,,,13.771458233008161,13.816293084004428,13.816293084004428,14.488934233988402,14.569131545984419,14.722664392989827,None,0,,,sub-testrun,ses-1control,run-1,grey,2024-10-15_10h58.52.865,VDT,2023.2.3,120.85476758170391,2024-10-15 10h59.01.352300 +0200,
./images_eeg/Sphere_CW-0.75_BG-grey_stim-white.png,0,7,7,7,14.767743562988471,,,,,,,,,,14.723169625998707,14.767743562988471,14.767743562988471,15.502547543990659,15.510610266006552,15.744063707999885,None,0,15.743076401005965,,sub-testrun,ses-1control,run-1,grey,2024-10-15_10h58.52.865,VDT,2023.2.3,120.85476758170391,2024-10-15 10h59.01.352300 +0200,
./images_eeg/Sphere_CCW-0.75_BG-grey_stim-white.png,0,8,8,8,15.79691966198152,,,,,,,,,,15.744802425004309,15.79691966198152,15.79691966198152,16.487254243984353,16.54237101500621,16.743118774000322,None,0,16.73537729898817,,sub-testrun,ses-1control,run-1,grey,2024-10-15_10h58.52.865,VDT,2023.2.3,120.85476758170391,2024-10-15 10h59.01.352300 +0200,
./images_eeg/Sphere_CCW-0.75_BG-grey_stim-white.png,0,9,9,9,16.795528463000664,,,,,,,,,,16.743841049988987,16.795528463000664,16.795528463000664,17.50175691000186,17.543393548985478,17.691092127992306,None,0,,,sub-testrun,ses-1control,run-1,grey,2024-10-15_10h58.52.865,VDT,2023.2.3,120.85476758170391,2024-10-15 10h59.01.352300 +0200,
./images_eeg/Sphere_CW-0.75_BG-grey_stim-yellow.png,0,10,10,10,17.742971578991273,,,,,,,,,,17.69184475200018,17.753919759998098,17.753919759998098,18.489347258990165,18.501842344994657,18.669272890983848,None,0,,,sub-testrun,ses-1control,run-1,grey,2024-10-15_10h58.52.865,VDT,2023.2.3,120.85476758170391,2024-10-15 10h59.01.352300 +0200,
./images_eeg/Sphere_CW-0.75_BG-grey_stim-white.png,0,11,11,11,18.721868574008113,,,,,,,,,,18.670332960988162,18.74125804900541,18.74125804900541,19.489435502997367,19.489435502997367,19.669167195999762,None,0,,,sub-testrun,ses-1control,run-1,grey,2024-10-15_10h58.52.865,VDT,2023.2.3,120.85476758170391,2024-10-15 10h59.01.352300 +0200,
./images_eeg/Sphere_CCW-0.75_BG-grey_stim-white.png,0,12,12,12,19.720990245987196,,,,,,,,,,19.66999960099929,19.741088819981087,19.741088819981087,20.489367628004402,20.489367628004402,20.670094186003553,None,0,,,sub-testrun,ses-1control,run-1,grey,2024-10-15_10h58.52.865,VDT,2023.2.3,120.85476758170391,2024-10-15 10h59.01.352300 +0200,
./images_eeg/Sphere_CCW-0.75_BG-grey_stim-white.png,0,13,13,13,20.71069673099555,,,,,,,,,,20.670688081008848,20.74078312999336,20.74078312999336,21.48427883500699,21.48427883500699,21.667763193981955,None,0,,,sub-testrun,ses-1control,run-1,grey,2024-10-15_10h58.52.865,VDT,2023.2.3,120.85476758170391,2024-10-15 10h59.01.352300 +0200,
./images_eeg/Sphere_CW-0.75_BG-grey_stim-white.png,0,14,14,14,21.72858007499599,,,,,,,,,,21.66864900899236,21.735714048991213,21.735714048991213,22.485729898995487,22.485729898995487,22.704649689985672,None,0,,,sub-testrun,ses-1control,run-1,grey,2024-10-15_10h58.52.865,VDT,2023.2.3,120.85476758170391,2024-10-15 10h59.01.352300 +0200,
./images_eeg/Sphere_Ref_BG-grey_stim-yellow.png,0,15,15,15,22.75940951600205,,,,,,,,,,22.70539615600137,22.75940951600205,22.75940951600205,23.484336155990604,23.502655939984834,23.651133389008464,None,0,,,sub-testrun,ses-1control,run-1,grey,2024-10-15_10h58.52.865,VDT,2023.2.3,120.85476758170391,2024-10-15 10h59.01.352300 +0200,
./images_eeg/Sphere_CCW-0.75_BG-grey_stim-white.png,0,16,16,16,23.704660538991448,,,,,,,,,,23.652333450998412,23.74178628998925,23.74178628998925,24.483386489999248,24.483386489999248,24.691553751006722,None,0,,,sub-testrun,ses-1control,run-1,grey,2024-10-15_10h58.52.865,VDT,2023.2.3,120.85476758170391,2024-10-15 10h59.01.352300 +0200,
./images_eeg/Sphere_Ref_BG-grey_stim-white.png,0,17,17,17,24.736820149992127,,,,,,,,,,24.692154040007154,24.75004324200563,24.75004324200563,25.49125623900909,25.49125623900909,25.77299314699485,None,0,25.732971188001102,25.738516196986893,sub-testrun,ses-1control,run-1,grey,2024-10-15_10h58.52.865,VDT,2023.2.3,120.85476758170391,2024-10-15 10h59.01.352300 +0200,
