image,trials.thisRepN,trials.thisTrialN,trials.thisN,trials.thisIndex,thisRow.t,notes,WaitingForScannerTrigger.started,Vertical.started,key_resp.started,WaitingForScannerTrigger.stopped,key_resp.keys,key_resp.corr,key_resp.rt,key_resp.duration,VDT.started,PresentedLine1.started,key_resp_2.started,FixDot2.started,PresentedLine1.stopped,VDT.stopped,key_resp_2.keys,key_resp_2.corr,participant,session,run,BG_color,date,expName,psychopyVersion,frameRate,expStart,
,,,,,,,0.005565856001339853,0.013980144984088838,0.013980144984088838,18.306998090003617,s,0,18.284928998007672,None,,,,,,,,,sub-DDS_testrun,ses-2main,run-4,grey,2024-10-15_11h11.50.916,VDT,2023.2.3,None,2024-10-15 11h11.59.991603 +0200,
./images_eeg/Sphere_CCW-0.75_BG-grey_stim-white.png,0,0,0,0,18.363841864978895,,,,,,,,,,18.31591504998505,18.363841864978895,18.363841864978895,19.054125909984577,19.104198266984895,19.238610631000483,None,0,sub-DDS_testrun,ses-2main,run-4,grey,2024-10-15_11h11.50.916,VDT,2023.2.3,None,2024-10-15 11h11.59.991603 +0200,
./images_eeg/Sphere_CCW-0.75_BG-grey_stim-white.png,0,1,1,1,19.28418070898624,,,,,,,,,,19.23968454299029,19.321182579995366,19.321182579995366,20.05414433198166,20.063226737984223,20.238093711988768,None,0,sub-DDS_testrun,ses-2main,run-4,grey,2024-10-15_11h11.50.916,VDT,2023.2.3,None,2024-10-15 11h11.59.991603 +0200,
./images_eeg/Sphere_Ref_BG-grey_stim-white.png,0,2,2,2,20.28789081898867,,,,,,,,,,20.239233076979872,20.30386288597947,20.30386288597947,21.054121428984217,21.043168167991098,21.27087829800439,None,0,sub-DDS_testrun,ses-2main,run-4,grey,2024-10-15_11h11.50.916,VDT,2023.2.3,None,2024-10-15 11h11.59.991603 +0200,
./images_eeg/Sphere_CW-0.75_BG-grey_stim-white.png,0,3,3,3,21.306086666998453,,,,,,,,,,21.271399302000646,21.320468716992764,21.320468716992764,22.05327778100036,22.06104196998058,22.254243802977726,None,0,sub-DDS_testrun,ses-2main,run-4,grey,2024-10-15_11h11.50.916,VDT,2023.2.3,None,2024-10-15 11h11.59.991603 +0200,
./images_eeg/Sphere_CCW-0.75_BG-grey_stim-white.png,0,4,4,4,22.296233289991505,,,,,,,,,,22.25511391100008,22.30268064100528,22.30268064100528,23.053367023996543,23.044258763984544,23.25722460797988,None,0,sub-DDS_testrun,ses-2main,run-4,grey,2024-10-15_11h11.50.916,VDT,2023.2.3,None,2024-10-15 11h11.59.991603 +0200,
./images_eeg/Sphere_Ref_BG-grey_stim-white.png,0,5,5,5,23.307835824991344,,,,,,,,,,23.257995330000995,23.307835824991344,23.307835824991344,24.053199076006422,24.053199076006422,24.26116360499873,None,0,sub-DDS_testrun,ses-2main,run-4,grey,2024-10-15_11h11.50.916,VDT,2023.2.3,None,2024-10-15 11h11.59.991603 +0200,
./images_eeg/Sphere_CCW-0.75_BG-grey_stim-white.png,0,6,6,6,24.304045964992838,,,,,,,,,,24.26163641398307,24.304045964992838,24.304045964992838,25.05274574799114,25.05274574799114,25.270015742979012,None,0,sub-DDS_testrun,ses-2main,run-4,grey,2024-10-15_11h11.50.916,VDT,2023.2.3,None,2024-10-15 11h11.59.991603 +0200,
./images_eeg/Sphere_CW-0.75_BG-grey_stim-white.png,0,7,7,7,25.32115088799037,,,,,,,,,,25.27106973499758,25.32115088799037,25.32115088799037,26.052513873000862,26.068783931987127,26.210682409000583,None,0,sub-DDS_testrun,ses-2main,run-4,grey,2024-10-15_11h11.50.916,VDT,2023.2.3,None,2024-10-15 11h11.59.991603 +0200,
./images_eeg/Sphere_CW-0.75_BG-grey_stim-white.png,0,8,8,8,26.26276352899731,,,,,,,,,,26.211451198993018,26.302517365984386,26.302517365984386,27.052214374998584,27.04170244699344,27.22760066698538,None,0,sub-DDS_testrun,ses-2main,run-4,grey,2024-10-15_11h11.50.916,VDT,2023.2.3,None,2024-10-15 11h11.59.991603 +0200,
./images_eeg/Sphere_CCW-0.75_BG-grey_stim-white.png,0,9,9,9,27.269778946996666,,,,,,,,,,27.22811999497935,27.302049371006433,27.302049371006433,28.0599941489927,28.051945491984952,28.22649408498546,None,0,sub-DDS_testrun,ses-2main,run-4,grey,2024-10-15_11h11.50.916,VDT,2023.2.3,None,2024-10-15 11h11.59.991603 +0200,
./images_eeg/Sphere_Ref_BG-grey_stim-white.png,0,10,10,10,28.269340808998095,,,,,,,,,,28.22738129697973,28.30175409698859,28.30175409698859,29.051856396981748,29.041565944993636,29.24419920600485,None,0,sub-DDS_testrun,ses-2main,run-4,grey,2024-10-15_11h11.50.916,VDT,2023.2.3,None,2024-10-15 11h11.59.991603 +0200,
./images_eeg/Sphere_CCW-0.75_BG-grey_stim-white.png,0,11,11,11,29.296153117000358,,,,,,,,,,29.24496651897789,29.30379013597849,29.30379013597849,30.05153726998833,30.05153726998833,30.24366814500536,None,0,sub-DDS_testrun,ses-2main,run-4,grey,2024-10-15_11h11.50.916,VDT,2023.2.3,None,2024-10-15 11h11.59.991603 +0200,
./images_eeg/Sphere_CW-0.75_BG-grey_stim-white.png,0,12,12,12,30.296561700000893,,,,,,,,,,30.244175433996134,30.303220447996864,30.303220447996864,31.05120353397797,31.05120353397797,31.24250289797783,None,0,sub-DDS_testrun,ses-2main,run-4,grey,2024-10-15_11h11.50.916,VDT,2023.2.3,None,2024-10-15 11h11.59.991603 +0200,
./images_eeg/Sphere_CW-0.75_BG-grey_stim-white.png,0,13,13,13,31.28868731998955,,,,,,,,,,31.243134436983382,31.307955106982263,31.307955106982263,32.05082197999582,32.05082197999582,32.25907380197896,None,0,sub-DDS_testrun,ses-2main,run-4,grey,2024-10-15_11h11.50.916,VDT,2023.2.3,None,2024-10-15 11h11.59.991603 +0200,
./images_eeg/Sphere_Ref_BG-grey_stim-white.png,0,14,14,14,32.30842910998035,,,,,,,,,,32.259695599001134,32.30842910998035,32.30842910998035,33.05059315598919,33.05059315598919,33.258197266986826,None,0,sub-DDS_testrun,ses-2main,run-4,grey,2024-10-15_11h11.50.916,VDT,2023.2.3,None,2024-10-15 11h11.59.991603 +0200,
./images_eeg/Sphere_CCW-0.75_BG-grey_stim-white.png,0,15,15,15,33.30386213699239,,,,,,,,,,33.25877645498258,33.30386213699239,33.30386213699239,34.05029631999787,34.05029631999787,34.26778630699846,None,0,sub-DDS_testrun,ses-2main,run-4,grey,2024-10-15_11h11.50.916,VDT,2023.2.3,None,2024-10-15 11h11.59.991603 +0200,
./images_eeg/Sphere_CW-0.75_BG-grey_stim-white.png,0,16,16,16,34.31827866198728,,,,,,,,,,34.268833684996935,34.31827866198728,34.31827866198728,35.05034949199762,35.06790571799502,35.28479269100353,None,0,sub-DDS_testrun,ses-2main,run-4,grey,2024-10-15_11h11.50.916,VDT,2023.2.3,None,2024-10-15 11h11.59.991603 +0200,
./images_eeg/Sphere_CW-0.75_BG-grey_stim-white.png,0,17,17,17,35.331114575004904,,,,,,,,,,35.28545694600325,35.331114575004904,35.331114575004904,36.050204286002554,36.075042991986265,36.250567084003706,None,0,sub-DDS_testrun,ses-2main,run-4,grey,2024-10-15_11h11.50.916,VDT,2023.2.3,None,2024-10-15 11h11.59.991603 +0200,
