image,trials.thisRepN,trials.thisTrialN,trials.thisN,trials.thisIndex,thisRow.t,notes,WaitingForScannerTrigger.started,Vertical.started,key_resp.started,WaitingForScannerTrigger.stopped,key_resp.keys,key_resp.corr,key_resp.rt,key_resp.duration,VDT.started,PresentedLine1.started,key_resp_2.started,FixDot2.started,PresentedLine1.stopped,VDT.stopped,key_resp_2.keys,key_resp_2.corr,key_resp_2.rt,key_resp_2.duration,FixDot2.stopped,key_resp_2.stopped,participant,session,run,BG_color,date,expName,psychopyVersion,frameRate,expStart,
,,,,,,,0.005335333000402898,0.013586189015768468,0.013586189015768468,1.0977035280084237,s,0,1.0773454850132111,None,,,,,,,,,,,,,sub-SM,ses-1main,run-5,grey,2024-05-31_12h07.03.697,VDT,2023.2.3,116.58567929438802,2024-05-31 12h07.07.134294 +0200,
./images_eeg/Sphere_CW-2.25_BG-grey_stim-white.png,0,0,0,0,1.1471158350177575,,,,,,,,,,1.1057219350186642,1.1471158350177575,1.1471158350177575,1.8463695350219496,1.8892840570188127,2.062804302026052,None,0,,,,,sub-SM,ses-1main,run-5,grey,2024-05-31_12h07.03.697,VDT,2023.2.3,116.58567929438802,2024-05-31 12h07.07.134294 +0200,
./images_eeg/Sphere_CCW-2.25_BG-grey_stim-white.png,0,1,1,1,2.114769972016802,,,,,,,,,,2.064617663010722,2.114769972016802,2.114769972016802,2.84510793001391,2.86146545902011,3.0212217150256038,None,0,,,,,sub-SM,ses-1main,run-5,grey,2024-05-31_12h07.03.697,VDT,2023.2.3,116.58567929438802,2024-05-31 12h07.07.134294 +0200,
./images_eeg/Sphere_CCW-2.25_BG-grey_stim-white.png,0,2,2,2,3.0731902350089513,,,,,,,,,,3.021843788010301,3.0946812640177086,3.0946812640177086,3.844849386019632,3.834873255022103,4.045323571015615,None,0,,,,,sub-SM,ses-1main,run-5,grey,2024-05-31_12h07.03.697,VDT,2023.2.3,116.58567929438802,2024-05-31 12h07.07.134294 +0200,
./images_eeg/Sphere_Ref_BG-grey_stim-white.png,0,3,3,3,4.095356434001587,,,,,,,,,,4.046560818009311,4.102308163011912,4.102308163011912,4.844622958014952,4.844622958014952,5.052960134024033,['space'],0,0.4286929949885234,None,,,sub-SM,ses-1main,run-5,grey,2024-05-31_12h07.03.697,VDT,2023.2.3,116.58567929438802,2024-05-31 12h07.07.134294 +0200,
./images_eeg/Sphere_CW-2.25_BG-grey_stim-white.png,0,4,4,4,5.10097656401922,,,,,,,,,,5.053982014011126,5.10097656401922,5.10097656401922,5.844236480013933,5.844236480013933,6.0704508630151395,None,0,,,,,sub-SM,ses-1main,run-5,grey,2024-05-31_12h07.03.697,VDT,2023.2.3,116.58567929438802,2024-05-31 12h07.07.134294 +0200,
./images_eeg/Sphere_CW-2.25_BG-grey_stim-white.png,0,5,5,5,6.128382393013453,,,,,,,,,,6.07167893400765,6.128382393013453,6.128382393013453,6.844405595998978,6.868101259024115,7.078579918015748,None,0,,,,,sub-SM,ses-1main,run-5,grey,2024-05-31_12h07.03.697,VDT,2023.2.3,116.58567929438802,2024-05-31 12h07.07.134294 +0200,
./images_eeg/Sphere_CW-2.25_BG-grey_stim-white.png,0,6,6,6,7.127844394010026,,,,,,,,,,7.079648167011328,7.127844394010026,7.127844394010026,7.845764277008129,7.871158505004132,8.044293241022388,None,0,,,,,sub-SM,ses-1main,run-5,grey,2024-05-31_12h07.03.697,VDT,2023.2.3,116.58567929438802,2024-05-31 12h07.07.134294 +0200,
./images_eeg/Sphere_CW-2.25_BG-grey_stim-white.png,0,7,7,7,8.096818134014029,,,,,,,,,,8.045644601021195,8.110338910017163,8.110338910017163,8.843983967002714,8.851771024026675,9.068582905019866,None,0,,,,,sub-SM,ses-1main,run-5,grey,2024-05-31_12h07.03.697,VDT,2023.2.3,116.58567929438802,2024-05-31 12h07.07.134294 +0200,
./images_eeg/Sphere_CW-2.25_BG-grey_stim-white.png,0,8,8,8,9.121984035999049,,,,,,,,,,9.069334330008132,9.121984035999049,9.121984035999049,9.84327224700246,9.867801852000412,10.044148009008495,None,0,,,,,sub-SM,ses-1main,run-5,grey,2024-05-31_12h07.03.697,VDT,2023.2.3,116.58567929438802,2024-05-31 12h07.07.134294 +0200,
./images_eeg/Sphere_Ref_BG-grey_stim-white.png,0,9,9,9,10.095238191017415,,,,,,,,,,10.045108930004062,10.109188641014043,10.109188641014043,10.842192055017222,10.849445218016626,11.077336596004898,['space'],0,0.5583372719993349,None,,,sub-SM,ses-1main,run-5,grey,2024-05-31_12h07.03.697,VDT,2023.2.3,116.58567929438802,2024-05-31 12h07.07.134294 +0200,
./images_eeg/Sphere_CCW-2.25_BG-grey_stim-white.png,0,10,10,10,11.130978422006592,,,,,,,,,,11.078157136013033,11.130978422006592,11.130978422006592,11.84250586401322,11.876172143005533,12.026569909008685,None,0,,,,,sub-SM,ses-1main,run-5,grey,2024-05-31_12h07.03.697,VDT,2023.2.3,116.58567929438802,2024-05-31 12h07.07.134294 +0200,
./images_eeg/Sphere_CCW-2.25_BG-grey_stim-white.png,0,11,11,11,12.072932541021146,,,,,,,,,,12.027490330016008,12.09954736000509,12.09954736000509,12.842530441004783,12.842530441004783,13.043290864006849,None,0,,,,,sub-SM,ses-1main,run-5,grey,2024-05-31_12h07.03.697,VDT,2023.2.3,116.58567929438802,2024-05-31 12h07.07.134294 +0200,
./images_eeg/Sphere_Ref_BG-grey_stim-white.png,0,12,12,12,13.089983953017509,,,,,,,,,,13.044120269012637,13.098280674021225,13.098280674021225,13.849501966004027,13.849501966004027,14.067114165023668,None,0,,,,,sub-SM,ses-1main,run-5,grey,2024-05-31_12h07.03.697,VDT,2023.2.3,116.58567929438802,2024-05-31 12h07.07.134294 +0200,
./images_eeg/Sphere_CCW-2.25_BG-grey_stim-white.png,0,13,13,13,14.114274571998976,,,,,,,,,,14.067684528010432,14.114274571998976,14.114274571998976,14.841391720023239,14.860521449998487,15.109408395015635,None,0,,,15.082875772000989,15.10850334801944,sub-SM,ses-1main,run-5,grey,2024-05-31_12h07.03.697,VDT,2023.2.3,116.58567929438802,2024-05-31 12h07.07.134294 +0200,
./images_eeg/Sphere_CCW-2.25_BG-grey_stim-white.png,0,14,14,14,15.161851440003375,,,,,,,,,,15.110488641017582,15.161851440003375,15.161851440003375,15.84188013302628,15.908328020013869,16.033320654009003,None,0,,,,,sub-SM,ses-1main,run-5,grey,2024-05-31_12h07.03.697,VDT,2023.2.3,116.58567929438802,2024-05-31 12h07.07.134294 +0200,
./images_eeg/Sphere_Ref_BG-grey_stim-white.png,0,15,15,15,16.07746744900942,,,,,,,,,,16.033838848001324,16.099605363007868,16.099605363007868,16.840944868017687,16.848047745006625,17.04165426301188,['space'],0,0.6892089039902203,None,,,sub-SM,ses-1main,run-5,grey,2024-05-31_12h07.03.697,VDT,2023.2.3,116.58567929438802,2024-05-31 12h07.07.134294 +0200,
./images_eeg/Sphere_CCW-2.25_BG-grey_stim-white.png,0,16,16,16,17.08211494301213,,,,,,,,,,17.042516821005847,17.092419023014372,17.092419023014372,17.84398372101714,17.84398372101714,18.066013527015457,None,0,,,,,sub-SM,ses-1main,run-5,grey,2024-05-31_12h07.03.697,VDT,2023.2.3,116.58567929438802,2024-05-31 12h07.07.134294 +0200,
./images_eeg/Sphere_CW-2.25_BG-grey_stim-white.png,0,17,17,17,18.111235297023086,,,,,,,,,,18.066468246019213,18.111235297023086,18.111235297023086,18.848825958004454,18.857581432006555,19.065422307001427,['space'],0,0.6860138829797506,None,,,sub-SM,ses-1main,run-5,grey,2024-05-31_12h07.03.697,VDT,2023.2.3,116.58567929438802,2024-05-31 12h07.07.134294 +0200,
