image,trials.thisRepN,trials.thisTrialN,trials.thisN,trials.thisIndex,thisRow.t,notes,WaitingForScannerTrigger.started,Vertical.started,key_resp.started,WaitingForScannerTrigger.stopped,key_resp.keys,key_resp.corr,key_resp.rt,key_resp.duration,VDT.started,PresentedLine1.started,key_resp_2.started,FixDot2.started,PresentedLine1.stopped,VDT.stopped,key_resp_2.keys,key_resp_2.corr,key_resp_2.rt,key_resp_2.duration,participant,session,run,BG_color,date,expName,psychopyVersion,frameRate,expStart,
,,,,,,,0.007263623992912471,0.014907403965480626,0.014907403965480626,2.967797544959467,s,0,2.904802792996634,None,,,,,,,,,,,sub-test1,ses-1main,run-1,grey,2024-04-24_16h26.13.793,VDT,2023.2.3,None,2024-04-24 16h26.28.391730 +0200,
./images_eeg/Sphere_CCW-3.75_BG-grey_stim-white.png,0,0,0,0,3.0271501159877516,,,,,,,,,,2.9781743309576996,3.0271501159877516,3.0271501159877516,3.716118550975807,3.785653206985444,3.904817731003277,None,0,,,sub-test1,ses-1main,run-1,grey,2024-04-24_16h26.13.793,VDT,2023.2.3,None,2024-04-24 16h26.28.391730 +0200,
./images_eeg/Sphere_CCW-3.75_BG-grey_stim-white.png,0,1,1,1,3.957721781975124,,,,,,,,,,3.9058682559989393,3.9680007999995723,3.9680007999995723,4.715921271999832,4.715921271999832,4.90220557997236,None,0,,,sub-test1,ses-1main,run-1,grey,2024-04-24_16h26.13.793,VDT,2023.2.3,None,2024-04-24 16h26.28.391730 +0200,
./images_eeg/Sphere_CW-3.75_BG-grey_stim-white.png,0,2,2,2,4.946250474953558,,,,,,,,,,4.902584066963755,4.982402378984261,4.982402378984261,5.716011919954326,5.724424516956788,5.969864965009037,None,0,,,sub-test1,ses-1main,run-1,grey,2024-04-24_16h26.13.793,VDT,2023.2.3,None,2024-04-24 16h26.28.391730 +0200,
./images_eeg/Sphere_CW-3.75_BG-grey_stim-white.png,0,3,3,3,6.023029351956211,,,,,,,,,,5.970597890962381,6.023029351956211,6.023029351956211,6.717666088952683,6.769406370003708,6.9242811689618975,None,0,,,sub-test1,ses-1main,run-1,grey,2024-04-24_16h26.13.793,VDT,2023.2.3,None,2024-04-24 16h26.28.391730 +0200,
./images_eeg/Sphere_CW-3.75_BG-grey_stim-white.png,0,4,4,4,6.970203220960684,,,,,,,,,,6.9248345529777,6.970203220960684,6.970203220960684,7.715304509969428,7.7237659219536,7.882486741989851,None,0,,,sub-test1,ses-1main,run-1,grey,2024-04-24_16h26.13.793,VDT,2023.2.3,None,2024-04-24 16h26.28.391730 +0200,
./images_eeg/Sphere_Ref_BG-grey_stim-white.png,0,5,5,5,7.935769650968723,,,,,,,,,,7.8834730929811485,7.968551079975441,7.968551079975441,8.715055798005778,8.715055798005778,8.902103314001579,['space'],0,0.4509763389942236,None,sub-test1,ses-1main,run-1,grey,2024-04-24_16h26.13.793,VDT,2023.2.3,None,2024-04-24 16h26.28.391730 +0200,
./images_eeg/Sphere_CCW-3.75_BG-grey_stim-white.png,0,6,6,6,8.945569884963334,,,,,,,,,,8.902953157958109,8.981544567970559,8.981544567970559,9.717771524970885,9.72520078200614,9.88982629799284,None,0,,,sub-test1,ses-1main,run-1,grey,2024-04-24_16h26.13.793,VDT,2023.2.3,None,2024-04-24 16h26.28.391730 +0200,
./images_eeg/Sphere_CCW-3.75_BG-grey_stim-white.png,0,7,7,7,9.934969221998472,,,,,,,,,,9.890339327976108,9.964451900974382,9.964451900974382,10.714372297981754,10.704503996006679,10.932850101962686,None,0,,,sub-test1,ses-1main,run-1,grey,2024-04-24_16h26.13.793,VDT,2023.2.3,None,2024-04-24 16h26.28.391730 +0200,
./images_eeg/Sphere_Ref_BG-grey_stim-white.png,0,8,8,8,10.97631288395496,,,,,,,,,,10.933373862993903,10.97631288395496,10.97631288395496,11.715275169990491,11.722778106981423,11.949062186002266,['space'],0,0.4557269290089607,None,sub-test1,ses-1main,run-1,grey,2024-04-24_16h26.13.793,VDT,2023.2.3,None,2024-04-24 16h26.28.391730 +0200,
./images_eeg/Sphere_CCW-3.75_BG-grey_stim-white.png,0,9,9,9,11.990135181986261,,,,,,,,,,11.94944747997215,11.990135181986261,11.990135181986261,12.716467220976483,12.736274541006424,12.948398578970227,None,0,,,sub-test1,ses-1main,run-1,grey,2024-04-24_16h26.13.793,VDT,2023.2.3,None,2024-04-24 16h26.28.391730 +0200,
./images_eeg/Sphere_CW-3.75_BG-grey_stim-white.png,0,10,10,10,13.003332307969686,,,,,,,,,,12.949172412976623,13.003332307969686,13.003332307969686,13.713203507999424,13.752235880994704,13.897243298997637,None,0,,,sub-test1,ses-1main,run-1,grey,2024-04-24_16h26.13.793,VDT,2023.2.3,None,2024-04-24 16h26.28.391730 +0200,
./images_eeg/Sphere_Ref_BG-grey_stim-white.png,0,11,11,11,13.939885947969742,,,,,,,,,,13.898039599007461,13.963214190967847,13.963214190967847,14.731390384957194,14.715631472994573,14.932140597957186,['space'],0,0.46106221299851313,None,sub-test1,ses-1main,run-1,grey,2024-04-24_16h26.13.793,VDT,2023.2.3,None,2024-04-24 16h26.28.391730 +0200,
./images_eeg/Sphere_CW-3.75_BG-grey_stim-white.png,0,12,12,12,14.975428448000457,,,,,,,,,,14.93284353800118,14.975428448000457,14.975428448000457,15.715269361971878,15.72265523095848,15.933807729976252,None,0,,,sub-test1,ses-1main,run-1,grey,2024-04-24_16h26.13.793,VDT,2023.2.3,None,2024-04-24 16h26.28.391730 +0200,
./images_eeg/Sphere_CCW-3.75_BG-grey_stim-white.png,0,13,13,13,15.981637816003058,,,,,,,,,,15.934412896982394,15.981637816003058,15.981637816003058,16.715602588956244,16.723359257972334,16.949233933002688,None,0,,,sub-test1,ses-1main,run-1,grey,2024-04-24_16h26.13.793,VDT,2023.2.3,None,2024-04-24 16h26.28.391730 +0200,
./images_eeg/Sphere_Ref_BG-grey_stim-white.png,0,14,14,14,16.998519465967547,,,,,,,,,,16.94983801600756,16.998519465967547,16.998519465967547,17.717798788973596,17.76254327397328,17.92108558799373,['space'],0,0.41555029299343005,None,sub-test1,ses-1main,run-1,grey,2024-04-24_16h26.13.793,VDT,2023.2.3,None,2024-04-24 16h26.28.391730 +0200,
./images_eeg/Sphere_CW-3.75_BG-grey_stim-white.png,0,15,15,15,17.973642664961517,,,,,,,,,,17.922037531971,17.973642664961517,17.973642664961517,18.71551474800799,18.72282596497098,18.948783528991044,None,0,,,sub-test1,ses-1main,run-1,grey,2024-04-24_16h26.13.793,VDT,2023.2.3,None,2024-04-24 16h26.28.391730 +0200,
./images_eeg/Sphere_CCW-3.75_BG-grey_stim-white.png,0,16,16,16,18.997861657990143,,,,,,,,,,18.949785793956835,18.997861657990143,18.997861657990143,19.714169217972085,19.76207430299837,19.93953276897082,None,0,,,sub-test1,ses-1main,run-1,grey,2024-04-24_16h26.13.793,VDT,2023.2.3,None,2024-04-24 16h26.28.391730 +0200,
./images_eeg/Sphere_CW-3.75_BG-grey_stim-white.png,0,17,17,17,19.988597388961352,,,,,,,,,,19.94026257598307,19.988597388961352,19.988597388961352,20.71208517497871,20.736816020973492,20.922049476997927,None,0,,,sub-test1,ses-1main,run-1,grey,2024-04-24_16h26.13.793,VDT,2023.2.3,None,2024-04-24 16h26.28.391730 +0200,
